Time,Min,Sec,MS,Temperature,Humidity,Heater,TVOC,CO2,H2,Ethanol,Orientation_X,Orientation_Y,Orientation_Z,Gyrometer_X,Gyrometer_Y,Gyrometer_Z,Gyrometer_Total,Linear_X,Linear_Y,Linear_Z,Linear_Total,Magnetic_X,Magnetic_Y,Magnetic_Z,Magnetic_Total,Acceleration_X,Acceleration_Y,Acceleration_Z,Acceleration_Total,Gravity_X,Gravity_Y,Gravity_Z,Gravity_Total,Position_X,Position_Y,Position_Head
1671,0,1,671,20.9,33.07,0,0,400,14862,18745,0,0,0,0,0,0,0,0,0,0,0,0,0,0,0,0,0,0,0,0,0,0,0,0,0,0
1850,0,1,850,20.91,33.04,0,0,400,14864,18747,0,0,0,0,0,0,0,0,0,0,0,0,0,0,0,0,0,0,0,0,0,0,0,0,0,0
2026,0,2,26,20.93,33.11,0,0,400,14874,18764,0,0,0,0,0,0,0,0,0,0,0,0,0,0,0,0,0,0,0,0,0,0,0,0,0,0
2207,0,2,207,20.93,33.1,0,0,400,14874,18760,0,0.31,38.25,-0,-0,0,0,0,0.63,-0.92,-0.29,-1.06,40.75,18.06,57.75,0.05,-5.43,6.77,1.39,0.05,-6.07,7.69,1.67,0,10319.71,0
2001,0,2,1,20.93,30.73,0,0,400,14121,17965,0,0,0,0,0,0,0,0,0,0,0,0,0,0,0,0,0,0,0,0,0,0,0,0,0,0
2180,0,2,180,20.94,30.77,0,0,400,14166,17986,0,0,0,0,0,0,0,0,0,0,0,0,0,0,0,0,0,0,0,0,0,0,0,0,0,0
2356,0,2,356,20.93,30.81,0,0,400,14204,18015,0,0,0,0,0,0,0,0,0,0,0,0,0,0,0,0,0,0,0,0,0,0,0,0,0,0
2535,0,2,535,20.94,30.81,0,0,400,14237,18040,0.31,-27.38,-129.12,-0,-0,-0.01,-0.01,-0.27,0.41,-0.16,-0.02,14.25,-16.5,21.25,19,-4.78,7.16,-5.66,-3.28,-4.51,6.75,-5.49,-3.25,-4325.54,6568.4,-0.05
2716,0,2,716,20.94,30.87,0,0,400,14275,18058,0.31,-27.44,-129.12,-0,-0.01,-0,-0.01,-0.02,-0.07,0.1,0.01,13.56,-16.5,17.06,14.12,-4.54,6.67,-5.38,-3.25,-4.51,6.74,-5.49,-3.26,-4653.15,5421.77,-0
2900,0,2,900,20.96,30.84,0,0,400,14305,18083,0.38,-27.44,-129.06,-0.01,0.01,-0,0,-0.01,-0.03,0.05,0.01,13.56,-15.88,18.25,15.93,-4.53,6.71,-5.42,-3.24,-4.52,6.75,-5.48,-3.25,-4822.43,4913.93,-0
3083,0,3,83,20.94,30.92,0,0,400,14349,18124,0.31,-27.44,-129.06,-0.01,0.01,0,0,-0.02,0.03,0.02,0.03,12.19,-16.5,17.88,13.57,-4.52,6.76,-5.36,-3.12,-4.52,6.75,-5.48,-3.25,-5157.32,5416.26,-0
3269,0,3,269,20.91,30.92,0,0,400,14365,18123,0.19,-27.38,-129.12,-0.01,0,-0,-0.01,0,0.15,-0.07,0.08,12.75,-16.5,18.69,14.94,-4.52,6.91,-5.56,-3.17,-4.51,6.75,-5.49,-3.25,-5157.32,8010.97,0
3452,0,3,452,20.89,30.88,0,0,400,14393,18151,0.25,-27.44,-129.12,-0.01,-0,0,-0.01,0,-0.06,-0.03,-0.09,15,-18,17.88,14.88,-4.51,6.69,-5.52,-3.34,-4.52,6.75,-5.49,-3.26,-5157.32,7006.3,0
3634,0,3,634,20.9,30.96,0,0,400,14415,18164,0.19,-27.44,-129.06,-0,-0.01,-0.01,-0.02,0,0.02,-0.19,-0.17,13.19,-23.06,18,8.13,-4.54,6.78,-5.5,-3.26,-4.51,6.75,-5.49,-3.25,-5157.32,7337.54,0
3820,0,3,820,20.89,30.98,0,0,400,14441,18180,0.31,-27.44,-129.06,-0.01,-0.01,-0.01,-0.03,-0.04,0.11,0.19,0.26,17.88,-17.69,21,21.19,-4.57,6.87,-5.28,-2.98,-4.52,6.75,-5.48,-3.25,-5849.24,9240.32,-0.01
4002,0,4,2,20.91,31.02,0,0,400,14462,18212,0.44,-27.62,-129,-0.01,-0.01,-0.02,-0.04,0,-0.25,-0.3,-0.55,26,-20.06,24.56,30.5,-4.55,6.48,-5.78,-3.85,-4.55,6.74,-5.47,-3.28,-5849.24,5099.82,0
4192,0,4,192,20.9,30.99,0,0,400,14486,18230,0.56,-27.81,-129,-0.01,-0,-0.02,-0.03,0,-0.13,-0.23,-0.36,24.19,-23,23.88,25.07,-4.58,6.6,-5.69,-3.67,-4.57,6.73,-5.46,-3.3,-5849.24,2753.32,0
4372,0,4,372,20.89,31.02,0,0,400,14496,18235,0.69,-27.94,-129,-0,-0.01,-0.02,-0.03,0.02,0.05,0,0.07,17.56,-36.25,25.19,6.5,-4.57,6.78,-5.46,-3.25,-4.59,6.73,-5.45,-3.31,-5525.24,3563.32,0
4555,0,4,555,20.9,31.05,0,0,400,14512,18252,0.81,-28,-129,0,-0.01,-0.01,-0.02,0.01,0.11,-0.11,0.01,9.88,-42,21.38,-10.74,-4.6,6.83,-5.56,-3.33,-4.61,6.72,-5.44,-3.33,-5357.79,5405.21,0
4739,0,4,739,20.86,31.07,0,0,400,14526,18270,0.88,-28.06,-129,-0,-0.01,-0.01,-0.02,0.12,0.41,-0.25,0.28,10.25,-41.69,19.5,-11.94,-4.48,7.13,-5.7,-3.05,-4.61,6.72,-5.44,-3.33,-3326.43,12345.69,0.02
4924,0,4,924,20.86,31.1,0,0,400,14539,18277,1,-28.06,-129,0.01,-0.01,-0,0,0,-0.08,0.04,-0.04,10.69,-43.06,20.56,-11.81,-4.61,6.63,-5.39,-3.37,-4.62,6.72,-5.44,-3.34,-3326.43,10976.69,0
5107,0,5,107,20.87,31.13,0,0,400,14554,18302,1.12,-28.12,-128.94,0,-0.01,-0.01,-0.02,0.02,0,0.22,0.24,8.5,-42.75,21,-13.25,-4.57,6.82,-5.31,-3.06,-4.63,6.71,-5.43,-3.35,-2991.54,10976.69,0
5291,0,5,291,20.84,31.17,0,0,400,14564,18298,1.25,-28.19,-128.94,-0,-0,0,0,0,0.02,0.04,0.06,9.88,-42.38,21.38,-11.12,-4.63,6.74,-5.38,-3.27,-4.63,6.71,-5.43,-3.35,-2991.54,11315.25,0
5501,0,5,501,20.81,31.17,0,0,400,14584,18318,1.25,-28.19,-128.94,-0,0,-0,0,0.05,0.11,0.12,0.28,10.25,-42,19.5,-12.25,-4.62,6.8,-5.16,-2.98,-4.63,6.71,-5.43,-3.35,-1889.04,13740.75,0.01
2236,0,2,236,20.86,28.47,0,0,400,12759,17192,0,0,0,0,0,0,0,0,0,0,0,0,0,0,0,0,0,0,0,0,0,0,0,0,0,0
2421,0,2,421,20.83,28.45,0,0,400,12840,17238,0,0,0,0,0,0,0,0,0,0,0,0,0,0,0,0,0,0,0,0,0,0,0,0,0,0
2601,0,2,601,20.81,28.47,0,0,400,12921,17279,0,-82.25,-94.12,0.06,0.01,-0.01,0.06,-0.19,-0.27,0.1,-0.36,38.38,15.06,32.06,85.5,-9.91,1.03,0,-8.88,-9.71,1.31,-0.09,-8.49,-3078,-4374,-0.03
2789,0,2,789,20.83,28.47,0,0,400,13005,17323,359.75,-82.25,-93.5,-0.08,-0.01,0.01,-0.08,-0.21,-0.33,-0.23,-0.77,38.75,14.69,33.69,87.13,-9.93,0.98,-0.31,-9.26,-9.71,1.32,-0.07,-8.46,-6789.12,-10205.76,-0.04
2975,0,2,975,20.84,28.54,0,0,400,13070,17361,359.38,-82.06,-92.06,-0.01,0,-0,-0.01,-0.15,0.29,-0.34,-0.2,38.88,14.25,33.06,86.19,-9.86,1.64,-0.39,-8.61,-9.71,1.34,-0.04,-8.41,-9383.82,-5189.34,-0.03
3167,0,3,167,20.84,28.48,0,0,400,13140,17399,359.5,-82.19,-92.62,-0.01,0,-0.01,-0.02,-0.25,-0.55,-0.11,-0.91,39.19,14.06,32.69,85.94,-9.89,0.91,-0.11,-9.09,-9.71,1.32,-0.06,-8.45,-13991.82,-15326.94,-0.05
3360,0,3,360,20.84,28.51,0,0,400,13213,17438,359.81,-82.25,-92.56,0.01,-0.01,-0,0,-0.14,0.18,0.4,0.44,39.06,13.69,32.25,85,-9.88,1.35,0.47,-8.06,-9.71,1.31,-0.05,-8.45,-16599.25,-11974.53,-0.03
3546,0,3,546,20.83,28.5,0,0,400,13280,17476,359.5,-82.25,-92,0.01,0.01,0.01,0.03,-0.14,0.07,0.66,0.59,39.5,14.38,31.88,85.76,-9.86,1.38,0.61,-7.87,-9.71,1.31,-0.04,-8.44,-19020.97,-10763.67,-0.03
3734,0,3,734,20.84,28.51,0,0,400,13330,17501,359.44,-82.19,-91.88,-0.04,-0.01,0.01,-0.04,-0.09,-0.08,-0.41,-0.58,38.38,14.38,31.88,84.64,-9.81,1.23,-0.45,-9.03,-9.71,1.32,-0.04,-8.43,-20611.45,-12177.43,-0.02
3919,0,3,919,20.83,28.51,0,0,400,13384,17541,359.06,-82.12,-88.94,0,0.02,0.01,0.03,-0.2,-0.04,0.85,0.61,39.5,13.56,31.69,84.75,-9.86,1.39,0.83,-7.64,-9.71,1.34,0.02,-8.35,-24033.95,-12861.93,-0.04
4109,0,4,109,20.83,28.53,0,0,400,13437,17564,359.69,-82.12,-90.88,0.01,0.01,-0.01,0.01,-0.08,0.08,-0.59,-0.59,39.88,14.25,32,86.13,-9.8,1.41,-0.61,-9,-9.71,1.33,-0.02,-8.4,-25477.95,-11417.93,-0.02
4297,0,4,297,20.83,28.5,0,0,400,13495,17604,359,-82.12,-90,-0.02,0,0.01,-0.01,-0.15,0.33,0.35,0.53,39.06,13.56,32.69,85.31,-9.87,1.67,0.35,-7.85,-9.71,1.33,0,-8.38,-28128.75,-5586.17,-0.03
4486,0,4,486,20.83,28.53,0,0,400,13527,17618,359.44,-82.12,-90.19,0.05,0,0,0.05,-0.19,-0.11,0.24,-0.06,39.88,14,31.69,85.57,-9.91,1.22,0.24,-8.45,-9.71,1.33,0,-8.38,-31522.25,-7550.83,-0.04
4670,0,4,670,20.83,28.55,0,0,400,13576,17645,359.31,-82.19,-90.06,-0.14,0,0.01,-0.13,-0.15,0.12,0,-0.03,38.88,14.25,32.5,85.63,-9.86,1.45,0,-8.41,-9.71,1.33,0,-8.38,-34061.45,-5519.47,-0.03
4860,0,4,860,20.83,28.55,0,0,400,13614,17664,359.31,-82.19,-89.12,0.02,0.01,-0.04,-0.01,-0.21,-0.12,0.17,-0.16,38.75,14.56,33.5,86.81,-9.93,1.2,0.19,-8.54,-9.71,1.33,0.01,-8.37,-37851.95,-7685.47,-0.04
5050,0,5,50,20.84,28.55,0,0,400,13652,17689,359.88,-82.31,-90.12,-0,0,0.01,0.01,-0.17,-0.23,0.16,-0.24,39.5,14.25,33.88,87.63,-9.89,1.07,0.15,-8.67,-9.71,1.3,0,-8.41,-40920.45,-11836.97,-0.03
5233,0,5,233,20.83,28.57,0,0,400,13691,17716,359.06,-82.19,-89.62,-0.03,-0.01,0.04,0,-0.15,1.03,0.48,1.36,38.5,13.88,34.56,86.94,-9.6,1.11,0.92,-7.57,-9.71,1.33,0.01,-8.37,-43432.12,5409.87,-0.03
5427,0,5,427,20.83,28.5,0,0,400,13731,17739,358.81,-82.19,-89.81,-0.07,0,-0,-0.07,-0.1,0.28,-0.5,-0.32,38.75,14.19,34.06,87,-9.81,1.61,-0.5,-8.7,-9.71,1.33,0,-8.38,-45313.92,10678.91,-0.02
5612,0,5,612,20.83,28.57,0,0,400,13761,17745,358.94,-82.19,-90.06,-0.02,0.03,0.01,0.02,-0.19,-0.04,0,-0.23,38.06,14.56,33.88,86.5,-9.9,1.28,0,-8.62,-9.71,1.33,0,-8.38,-48565.3,9994.41,-0.04
5801,0,5,801,20.83,28.51,0,0,400,13785,17766,358.81,-82.19,-90.31,-0.03,-0.01,-0.01,-0.05,-0.19,-0.14,0.14,-0.19,37.69,15.19,32.69,85.57,-9.91,1.18,0.13,-8.6,-9.71,1.33,0,-8.38,-51958.79,7493.94,-0.04
5985,0,5,985,20.83,28.61,0,0,400,13825,17800,358.88,-82.19,-90.38,-0.03,0.01,-0.01,-0.03,-0.15,0.05,-0.22,-0.32,38.5,14.5,34.06,87.06,-9.86,1.38,-0.22,-8.7,-9.71,1.32,-0.01,-8.4,-54497.99,8340.34,-0.03
6178,0,6,178,20.83,28.55,0,0,400,13850,17815,359.12,-82.25,-90.44,0.01,-0.02,-0,-0.01,-0.19,-0.1,-0.16,-0.45,37.69,14.5,34.19,86.38,-9.91,1.35,-0.14,-8.7,-9.71,1.31,0,-8.4,-58036.65,6477.89,-0.04
6364,0,6,364,20.83,28.6,0,0,400,13886,17827,359,-82.19,-90,0.02,-0,0.02,0.04,-0.11,0.49,0,0.38,37.69,14.5,34.56,86.75,-9.83,1.82,0,-8.01,-9.71,1.32,0,-8.39,-59939.43,14953.91,-0.02
6568,0,6,568,20.83,28.6,0,0,400,13900,17835,358.88,-82.19,-89.94,0.09,-0,0.01,0.1,-0.12,0.11,0.41,0.4,37,14.75,33.75,85.5,-9.84,1.44,0.41,-7.99,-9.71,1.33,0,-8.38,-62436.39,17242.79,-0.02
6760,0,6,760,20.84,28.61,0,0,400,13927,17861,358.44,-82.12,-90.38,-0.02,-0.01,0.01,-0.02,-0.12,0.41,-0.25,0.04,37.75,15.19,33.75,86.69,-9.85,1.62,0.33,-7.9,-9.71,1.34,0,-8.37,-64648.23,24799.91,-0.02
6946,0,6,946,20.83,28.64,0,0,400,13953,17872,358.38,-82.06,-89.81,0.01,0.01,-0.02,0,-0.16,-0.23,0.31,-0.08,38.88,13.75,33.69,86.32,-9.87,1.12,0.31,-8.44,-9.71,1.35,0,-8.36,-67415.91,20821.37,-0.03
7138,0,7,138,20.83,28.63,0,0,400,13967,17880,358.31,-82,-90,-0.05,-0,-0,-0.05,-0.17,0.01,0.09,-0.07,38.19,14.5,33.69,86.38,-9.88,1.37,0.09,-8.42,-9.71,1.35,0,-8.36,-70549.35,21005.69,-0.03
7324,0,7,324,20.83,28.6,0,0,400,13988,17893,358,-81.94,-89.19,-0.02,-0.02,0,-0.04,-0.19,0.1,-0.09,-0.18,37.75,15.19,34.06,87,-9.9,1.47,-0.07,-8.5,-9.71,1.37,0.01,-8.33,-73835.97,22735.49,-0.04
7515,0,7,515,20.84,28.61,0,0,400,14013,17905,357.75,-81.88,-88,0.02,-0,0,0.02,-0.14,0.16,0.28,0.3,38.5,13.75,32.56,84.81,-9.86,1.68,0.25,-7.93,-9.7,1.38,0.04,-8.28,-76389.64,25653.97,-0.03
7699,0,7,699,20.81,28.64,0,0,400,14035,17918,357.75,-81.88,-87.88,0.02,0.01,0.01,0.04,-0.17,-0.18,-0.16,-0.51,38.88,14.5,33.69,87.07,-9.88,1.19,-0.11,-8.8,-9.7,1.37,0.05,-8.28,-79267.4,22606.93,-0.03
7891,0,7,891,20.84,28.65,0,0,400,14060,17944,357.81,-81.94,-87.94,0.05,-0.01,-0.01,0.03,-0.15,0.08,-0.13,-0.2,38.06,13.38,33.38,84.82,-9.86,1.46,-0.08,-8.48,-9.7,1.37,0.04,-8.29,-82032.2,24081.49,-0.03
8078,0,8,78,20.81,28.64,0,0,400,14073,17942,358.12,-82.06,-87.38,-0.02,-0.01,-0.01,-0.04,-0.16,-0.27,-0.05,-0.48,38.88,14.5,33,86.38,-9.87,1.06,0,-8.81,-9.71,1.34,0.06,-8.31,-84829.72,19360.67,-0.03
8268,0,8,268,20.81,28.61,0,0,400,14097,17975,357.94,-82.12,-87.12,-0.02,0.02,0.01,0.01,-0.16,0.06,0.36,0.26,37.69,13.38,33.38,84.45,-9.88,1.4,0.42,-8.06,-9.71,1.34,0.06,-8.31,-87717.72,20443.67,-0.03
8459,0,8,459,20.8,28.64,0,0,400,14109,17974,357.75,-82,-87.56,0.01,-0,0.01,0.02,-0.18,0.33,-0.2,-0.05,37.25,14.06,34.19,85.5,-9.89,1.69,-0.15,-8.35,-9.71,1.35,0.05,-8.31,-91001.01,26463.04,-0.03
8643,0,8,643,20.81,28.67,0,0,400,14122,17974,357.62,-82,-87.25,0.03,-0.01,-0,0.02,-0.16,0.01,0.53,0.38,38.75,14.19,34.19,87.13,-9.87,1.37,0.59,-7.91,-9.71,1.35,0.06,-8.3,-93709.49,26632.32,-0.03
8836,0,8,836,20.83,28.7,0,0,400,14142,17989,357.62,-82.06,-87.19,0.02,0,0,0.02,0,-0.04,0.26,0.22,38.75,13.88,33.69,86.32,-9.68,1.43,0.28,-7.97,-9.71,1.35,0.06,-8.3,-93709.49,25887.34,0
9022,0,9,22,20.81,28.7,0,0,400,14158,18012,357.81,-82.12,-87.25,-0.03,0,-0.02,-0.05,0,-0.31,0.32,0.01,38.75,14.56,34.19,87.5,-9.72,1.02,0.39,-8.31,-9.71,1.33,0.06,-8.32,-93709.49,20524.96,0
9210,0,9,210,20.83,28.7,0,0,400,14169,18014,357.75,-82.12,-87.06,-0.02,0,0,-0.02,0.01,0.05,0.15,0.21,39.06,14.56,33.38,87,-9.7,1.39,0.22,-8.09,-9.71,1.34,0.06,-8.31,-93532.77,21408.56,0
9395,0,9,395,20.81,28.71,0,0,400,14195,18036,357.88,-82.19,-87.25,0.01,0,-0.01,0,0.02,-0.08,0.3,0.24,38.5,14.56,34.19,87.25,-9.68,1.24,0.36,-8.08,-9.71,1.33,0.06,-8.32,-93190.52,20039.56,0
9588,0,9,588,20.81,28.64,0,0,400,14208,18042,357.75,-82.12,-87.62,0.02,-0.01,0.01,0.02,0,0.23,0.09,0.32,38.56,14.19,33.38,86.13,-9.7,1.58,0.17,-7.95,-9.71,1.33,0.05,-8.33,-93190.52,24323.19,0
9775,0,9,775,20.83,28.67,0,0,400,14223,18054,357.62,-82.12,-86.88,0,0,0.01,0.01,0.01,0.07,0.24,0.32,38.75,14.56,33,86.31,-9.7,1.41,0.32,-7.97,-9.71,1.33,0.07,-8.31,-93015.67,25547.11,0
9965,0,9,965,20.81,28.68,0,0,400,14231,18063,357.56,-82.12,-86,0.03,-0.01,-0.02,-3.46944695195361e-18,0,-0.17,0,-0.17,38.5,14.19,33.38,86.07,-9.72,1.15,0.09,-8.48,-9.71,1.33,0.09,-8.29,-93015.67,22478.61,0
10154,0,10,154,20.83,28.73,0,0,400,14252,18080,357.62,-82.19,-86.06,-0.05,0.01,-0,-0.04,-0.04,-0.4,-0.27,-0.71,39.19,14.75,34.25,88.19,-9.75,0.91,-0.18,-9.02,-9.71,1.32,0.08,-8.31,-93730.09,15334.41,-0.01
10339,0,10,339,20.81,28.73,0,0,400,14258,18083,357.5,-82.19,-86,-0.04,0,-0.01,-0.05,-0.04,-0.49,0.04,-0.49,39.19,14.06,34.25,87.5,-9.76,0.83,0.13,-8.8,-9.71,1.32,0.09,-8.3,-94414.59,6949.28,-0.01
10532,0,10,532,20.83,28.73,0,0,400,14271,18094,357.31,-82.12,-85.88,-0.04,0,-0.01,-0.05,-0.01,-0.11,-0.1,-0.22,37.75,13.75,33.5,85,-9.72,1.22,-0.01,-8.51,-9.71,1.33,0.09,-8.29,-94600.84,4900.59,-0
10716,0,10,716,20.83,28.71,0,0,400,14283,18096,357.31,-82.12,-85.44,-0.05,0.01,-0.01,-0.05,-0.02,-0.75,-0.1,-0.87,38.56,14.5,33.5,86.56,-9.73,0.57,0,-9.16,-9.71,1.33,0.1,-8.28,-94939.4,-7795.41,-0
10907,0,10,907,20.81,28.74,0,0,400,14296,18115,356.88,-82,-84.19,-0.02,-0.03,0.01,-0.04,0,0.09,0.22,0.31,38.88,14.75,32.69,86.32,-9.72,1.44,0.36,-7.92,-9.71,1.34,0.13,-8.24,-94939.4,-6153.77,0
11091,0,11,91,20.81,28.73,0,0,400,14308,18123,356.69,-82,-82.38,-0.01,0.01,-0.01,-0.01,-0.1,-0.38,0.01,-0.47,38.06,14.06,34.19,86.31,-9.81,0.96,0.19,-8.66,-9.71,1.34,0.17,-8.2,-96632.2,-12586.41,-0.02
11287,0,11,287,20.8,28.74,0,0,400,14318,18131,356.69,-82.06,-81.38,-0.05,-0.01,-0.02,-0.08,-0.01,-0.17,-0.18,-0.36,38.5,14.19,33.75,86.44,-9.73,1.08,0.13,-8.52,-9.71,1.33,0.2,-8.18,-96824.28,-15851.77,-0
11477,0,11,477,20.79,28.79,0,0,400,14332,18144,356.62,-82.06,-80.44,0,0.01,0.01,0.02,0,-0.04,0.03,-0.01,38.5,13.38,32.25,84.13,-9.71,1.28,0.25,-8.18,-9.71,1.33,0.22,-8.16,-96824.28,-16566.19,0
11659,0,11,659,20.83,28.78,0,0,400,14339,18143,356.38,-82,-80.44,0.03,-0.01,0.03,0.05,0.03,0,0.19,0.22,38.56,14.06,33,85.62,-9.67,1.34,0.42,-7.91,-9.71,1.34,0.22,-8.15,-96327.42,-16566.19,0.01
11849,0,11,849,20.81,28.78,0,0,400,14345,18155,356.12,-82,-80.12,0.02,-0,0.01,0.03,-0.01,-0.48,0.15,-0.34,39.5,13,33,85.5,-9.72,0.85,0.39,-8.48,-9.71,1.34,0.23,-8.14,-96507.92,-25230.19,-0
12034,0,12,34,20.8,28.8,0,0,400,14358,18170,356.06,-82,-79.56,-0.04,-0.01,-0,-0.05,-0.03,-0.55,0.21,-0.37,38.56,14.06,33,85.62,-9.74,0.77,0.45,-8.52,-9.71,1.33,0.24,-8.14,-97021.29,-34642.06,-0.01
12224,0,12,224,20.84,28.75,0,0,400,14372,18174,356,-81.94,-79.5,-0.04,0.01,-0.01,-0.04,0,0.17,-0.36,-0.19,38.56,13.75,33.38,85.69,-9.71,1.52,-0.11,-8.3,-9.71,1.34,0.24,-8.13,-97021.29,-31573.56,0
12407,0,12,407,20.81,28.77,0,0,400,14382,18178,355.88,-81.94,-79.19,-0.05,-0,0.01,-0.04,-0.01,-0.4,0.34,-0.07,38.88,13.38,32.25,84.51,-9.7,1.04,0.63,-8.03,-9.71,1.34,0.25,-8.12,-97188.74,-38271.36,-0
12600,0,12,600,20.81,28.81,0,0,400,14395,18190,355.81,-81.94,-79.44,-0.05,0.01,-0,-0.04,-0.02,-0.24,-0.2,-0.46,38.56,14.06,32.88,85.5,-9.73,1.1,0.04,-8.59,-9.71,1.34,0.24,-8.13,-97561.23,-42741.24,-0
12785,0,12,785,20.81,28.78,0,0,400,14397,18200,355.81,-81.94,-79.5,-0.01,0.01,-0.01,-0.01,-0.03,-0.23,0.41,0.15,40,14.06,32.56,86.62,-9.74,1.11,0.66,-7.97,-9.71,1.34,0.24,-8.13,-98074.6,-46677.12,-0.01
12978,0,12,978,20.81,28.77,0,0,400,14402,18208,355.94,-81.94,-80.25,-0.05,-0.01,-0.01,-0.07,0.01,-0.02,-0.29,-0.3,38.88,13.75,32.19,84.82,-9.69,1.32,-0.06,-8.43,-9.71,1.34,0.23,-8.14,-97890.28,-47045.76,0
13166,0,13,166,20.81,28.81,0,0,400,14405,18205,355.75,-81.88,-79.88,-0.03,0.02,-0.01,-0.02,0.05,0.71,-0.59,0.17,38.56,14.06,33,85.62,-9.65,2.06,-0.34,-7.93,-9.7,1.35,0.24,-8.11,-97006.68,-34498.64,0.01
13352,0,13,352,20.81,28.8,0,0,400,14425,18224,355.56,-81.88,-79.81,0,-0.01,0.02,0.01,0,0.21,0.2,0.41,39.19,12.56,32.88,84.63,-9.7,1.56,0.44,-7.7,-9.7,1.35,0.24,-8.11,-97006.68,-30866.06,0
13540,0,13,540,20.84,28.83,0,0,400,14428,18224,355.31,-81.81,-79.19,0.03,-0.02,-0.01,-1.73472347597681e-18,0,0.44,0.32,0.76,38.88,13.75,33.25,85.88,-9.7,1.8,0.58,-7.32,-9.7,1.36,0.25,-8.09,-97006.68,-23090.38,0
13724,0,13,724,20.83,28.83,0,0,400,14441,18243,355.19,-81.88,-78,-0.01,0.01,0.02,0.02,0.01,0.13,-0.25,-0.11,39.88,13.75,32.75,86.38,-9.69,1.48,0.03,-8.18,-9.7,1.34,0.28,-8.08,-96837.4,-20889.74,0
13915,0,13,915,20.79,28.79,0,0,400,14450,18246,355,-81.88,-77.81,0.01,-0,-0,0.01,-0.01,0.09,0.16,0.24,38.5,13.75,33,85.25,-9.72,1.45,0.45,-7.82,-9.7,1.35,0.29,-8.06,-97019.81,-19248.09,-0
14100,0,14,100,20.83,28.83,0,0,400,14458,18255,355,-81.88,-77.38,-0.03,-0,-0.01,-0.04,-0.02,-0.01,-0.24,-0.27,38.5,13.75,31.75,84,-9.73,1.32,0.05,-8.36,-9.7,1.34,0.29,-8.07,-97362.06,-19419.22,-0
14291,0,14,291,20.83,28.81,0,0,400,14464,18270,355,-81.88,-77.06,-0.02,0.01,-0.01,-0.02,0,-0.11,0.07,-0.04,39.5,14.06,32.25,85.81,-9.7,1.22,0.38,-8.1,-9.7,1.34,0.3,-8.06,-97362.06,-21425.67,0
14477,0,14,477,20.81,28.84,0,0,400,14475,18271,355,-81.88,-77,-0.03,-0,0,-0.03,-0.01,-0.19,-0.02,-0.22,39.06,13.75,32.56,85.37,-9.72,1.14,0.28,-8.3,-9.7,1.34,0.3,-8.06,-97535.04,-24712.29,-0
14660,0,14,660,20.79,28.83,0,350,400,14470,18265,355.06,-81.88,-77.44,-0.01,0.01,-0.01,-0.01,0.01,-0.26,-0.35,-0.6,39.06,13.38,31.38,83.82,-9.69,1.07,-0.05,-8.67,-9.7,1.34,0.29,-8.07,-97367.59,-29065.86,0
14852,0,14,852,20.8,28.88,0,342,400,14484,18282,355.19,-81.88,-77.69,-0.04,-0,0,-0.04,0,0.37,-0.09,0.28,39.5,13.38,32.25,85.13,-9.7,1.72,0.19,-7.79,-9.7,1.34,0.29,-8.07,-97367.59,-22246.02,0
15039,0,15,39,20.81,28.84,0,335,400,14482,18280,355.12,-81.88,-77.62,-0.02,-0.01,0,-0.03,-0.02,-0.03,-0.21,-0.26,38.5,13.75,32.56,84.81,-9.72,1.33,0.19,-8.2,-9.7,1.34,0.29,-8.07,-97717.28,-22770.56,-0
15229,0,15,229,20.8,28.81,0,323,400,14498,18294,355.19,-81.94,-77.62,-0.01,0.01,0,0,0,-0.12,0.2,0.08,38.06,13.38,32.56,84,-9.7,1.21,0.49,-8,-9.71,1.34,0.29,-8.08,-97717.28,-24936.56,0
15414,0,15,414,20.8,28.87,0,311,400,14507,18304,355.25,-81.94,-78.5,-0.02,-0.01,0.02,-0.01,-0.03,-0.33,-0.24,-0.6,38.75,14.06,33.75,86.56,-9.74,1,0.02,-8.72,-9.71,1.33,0.27,-8.11,-98230.66,-30583.68,-0.01
15607,0,15,607,20.8,28.83,0,294,400,14510,18315,355.12,-81.94,-78.31,-0.03,-0.01,-0,-0.04,0,0.16,0,0.16,37.75,13.75,33,84.5,-9.69,1.46,0.44,-7.79,-9.7,1.34,0.27,-8.09,-98230.66,-27603.76,0
15793,0,15,793,20.8,28.9,0,294,400,14510,18314,355.44,-82,-78.56,-0.01,0.01,-0,0,0.01,-0.13,-0.26,-0.38,39.06,12.56,33.38,85,-9.69,1.2,0,-8.49,-9.71,1.33,0.26,-8.12,-98057.68,-29852.5,0
15987,0,15,987,20.8,28.87,0,272,400,14525,18324,355.31,-81.94,-78.56,0,-0.01,0.01,0,0.04,0.44,0.4,0.88,38.5,14.5,32.25,85.25,-9.66,1.79,0.67,-7.2,-9.71,1.34,0.27,-8.1,-97304.96,-21572.58,0.01
16178,0,16,178,20.8,28.87,0,271,400,14529,18330,355.44,-82,-79.31,0.04,0,0.01,0.05,0.01,0.02,-0.03,0,38.5,13.75,33.75,86,-9.67,1.48,0.32,-7.87,-9.71,1.33,0.25,-8.13,-97122.55,-21207.77,0
16364,0,16,364,20.81,28.87,0,270,400,14537,18324,355.38,-82,-79.38,0.02,-0.01,0.01,0.02,0,-0.17,0.11,-0.06,38.06,13.75,33.38,85.19,-9.72,1.16,0.36,-8.2,-9.71,1.34,0.25,-8.12,-97122.55,-24148.43,0
16556,0,16,556,20.81,28.84,0,280,400,14533,18326,355.25,-81.94,-79.25,-0.01,0,0,-0.01,0,-0.26,-0.18,-0.44,38.75,14.75,33,86.5,-9.71,1.08,0.07,-8.56,-9.71,1.34,0.25,-8.12,-97122.55,-28940.75,0
16742,0,16,742,20.83,28.88,0,255,400,14548,18346,355.25,-82,-79.25,-0.03,0,0.01,-0.02,-0.05,-0.85,0,-0.9,39.06,14.06,32.56,85.68,-9.73,0.64,0.45,-8.64,-9.71,1.34,0.25,-8.12,-97987.45,-43644.05,-0.01
16933,0,16,933,20.8,28.94,0,248,400,14561,18363,355,-81.88,-79.12,-0.08,-0.01,0,-0.09,-0.01,0.03,-0.01,0.01,38.06,13,32.25,83.31,-9.72,1.21,0.28,-8.23,-9.7,1.35,0.26,-8.09,-98169.86,-43096.84,-0
17119,0,17,119,20.81,28.9,0,249,400,14564,18367,355.06,-81.94,-78.56,-0.03,0.01,-0.01,-0.03,-0.02,-0.24,-0.08,-0.34,38.5,14.5,31.88,84.88,-9.73,1.1,0.18,-8.45,-9.71,1.34,0.27,-8.1,-98512.11,-47203.84,-0
17310,0,17,310,20.8,28.88,0,244,400,14566,18362,354.88,-81.94,-77.88,-0.07,-0.02,0,-0.09,-0.02,-0.7,0.16,-0.56,37.69,13.38,33.38,84.45,-9.74,0.63,0.44,-8.67,-9.71,1.33,0.28,-8.1,-98876.92,-59972.19,-0
17504,0,17,504,20.83,28.94,0,239,400,14570,18366,354.69,-81.88,-77.25,-0.01,0.01,0,0,-0.03,-0.35,0.08,-0.3,38.06,13.5,32.56,84.12,-9.72,1.19,0.29,-8.24,-9.7,1.34,0.3,-8.06,-99441.46,-66558.49,-0.01
17691,0,17,691,20.8,28.94,0,231,400,14576,18374,354.62,-81.88,-77.25,0.01,-0,-0,0.01,-0.01,-0.29,0.17,-0.13,39.19,13,32.56,84.75,-9.72,1.05,0.48,-8.19,-9.7,1.34,0.3,-8.06,-99616.3,-71628.99,-0
17880,0,17,880,20.83,28.94,0,230,400,14580,18380,354.56,-81.88,-77.06,0.01,0.01,0.01,0.03,-0.01,-0.35,0.03,-0.33,38.5,13.75,33.5,85.75,-9.72,0.99,0.34,-8.39,-9.7,1.35,0.3,-8.05,-99794.91,-77880.17,-0
18065,0,18,65,20.8,28.87,0,226,400,14582,18375,354.62,-81.88,-77.56,0.02,0.01,-0.01,0.02,-0.02,-0.25,-0.09,-0.36,37.69,14.06,32.56,84.31,-9.73,1.02,0.22,-8.49,-9.7,1.35,0.29,-8.06,-100137.16,-82158.29,-0
18258,0,18,258,20.81,28.93,0,226,400,14590,18396,354.56,-81.81,-77.56,-0.02,0,-0.01,-0.03,-0.01,-0.21,0.23,0.01,38.75,13,33.38,85.13,-9.72,1.13,0.53,-8.06,-9.7,1.35,0.29,-8.06,-100323.4,-86069.44,-0
18444,0,18,444,20.8,28.98,0,226,400,14588,18389,354.56,-81.88,-77.88,-0.02,0.01,-0.01,-0.02,0,-0.14,-0.17,-0.31,38.75,13,32.56,84.31,-9.7,1.2,0.11,-8.39,-9.7,1.35,0.29,-8.06,-100323.4,-88491.16,0
18633,0,18,633,20.8,28.95,0,212,400,14601,18406,354.56,-81.81,-78,0,0.02,0,0.02,-0.04,0.09,-1.21,-1.16,38.75,14.5,32.56,85.81,-9.74,1.45,-0.92,-9.21,-9.7,1.35,0.28,-8.07,-101037.82,-86883.71,-0.01
18824,0,18,824,20.81,28.98,0,212,400,14606,18422,354.56,-81.81,-78.31,0.01,-0.01,-0.01,-0.01,0.02,0.08,-0.46,-0.36,37.69,13.75,32.56,84,-9.67,1.44,-0.18,-8.41,-9.7,1.36,0.28,-8.06,-100673.01,-85424.47,0
19011,0,19,11,20.8,28.97,0,204,400,14612,18414,354.5,-81.81,-77.62,0.04,0,0.02,0.06,0,0.31,-0.27,0.04,39.19,13,33.75,85.94,-9.65,1.68,0.12,-7.85,-9.7,1.35,0.29,-8.06,-100673.01,-80004.28,0
19201,0,19,201,20.81,28.95,0,208,400,14615,18416,354.31,-81.81,-77.94,0.01,-0.02,0.01,0,0.02,0.03,-0.3,-0.25,38.06,13.38,33.38,84.82,-9.66,1.49,0.37,-7.8,-9.7,1.36,0.29,-8.05,-100312.01,-79462.78,0
19384,0,19,384,20.79,28.91,0,205,400,14617,18427,354.25,-81.81,-77.62,-0.01,0.01,-0,0,-0.01,-0.29,0,-0.3,39.88,14.06,32.25,86.19,-9.72,1.07,0.29,-8.36,-9.7,1.36,0.29,-8.05,-100479.46,-84318.68,-0
19575,0,19,575,20.79,28.98,0,206,400,14621,18426,354.5,-81.88,-78.5,-0.04,-0,0.01,-0.03,0,-0.2,0.17,-0.03,38.75,14.06,32.56,85.37,-9.71,1.14,0.44,-8.13,-9.7,1.34,0.27,-8.09,-100479.46,-87966.78,0
19760,0,19,760,20.81,28.93,0,192,400,14632,18436,354.44,-81.88,-79.19,-0.02,0.02,0,0,0,0.27,-0.32,-0.05,38.5,13,31.88,83.38,-9.7,1.46,0,-8.24,-9.7,1.36,0.25,-8.09,-100479.46,-83346.41,0
19952,0,19,952,20.79,28.97,0,192,400,14638,18443,354.31,-81.81,-78.94,-0.07,0.01,-0,-0.06,-0.03,-0.1,-0.16,-0.29,39.88,13,33.38,86.26,-9.74,1.25,0.1,-8.39,-9.7,1.36,0.26,-8.08,-101032.42,-85189.61,-0.01
20136,0,20,136,20.79,28.97,0,190,400,14645,18442,354.38,-81.81,-79.19,-0.04,-0.01,-0.01,-0.06,-0.04,-0.03,-0.79,-0.86,38.75,14.06,32.56,85.37,-9.75,1.33,-0.53,-8.95,-9.7,1.36,0.26,-8.08,-101709.54,-85697.45,-0.01
20327,0,20,327,20.79,28.94,0,190,400,14641,18449,354.19,-81.81,-78.19,-0.07,-0,0.02,-0.05,0,-0.15,0.24,0.09,38.75,13,32.56,84.31,-9.7,1.21,0.53,-7.96,-9.7,1.36,0.28,-8.06,-101709.54,-88433.52,0
20517,0,20,517,20.8,29,0,187,400,14643,18453,354.06,-81.75,-77.81,-0.03,-0.02,-0.01,-0.06,-0.02,-0.14,0.21,0.05,38.06,14.06,32.25,84.37,-9.73,1.22,0.51,-8,-9.7,1.36,0.29,-8.05,-102070.54,-90960.52,-0
20704,0,20,704,20.8,29,0,183,400,14646,18454,354.12,-81.75,-78.38,0.02,0,0.01,0.03,0,0.14,-0.27,-0.13,38.5,13.69,33.69,85.88,-9.7,1.51,0,-8.19,-9.7,1.36,0.27,-8.07,-102070.54,-88512.69,0
20895,0,20,895,20.79,28.95,0,177,400,14659,18469,354.06,-81.75,-78.5,-0.02,-0.02,0.02,-0.02,0.01,0.15,0.23,0.39,38.5,13.25,32.19,83.94,-9.7,1.61,0.53,-7.56,-9.7,1.37,0.28,-8.05,-101888.13,-85776.62,0
21081,0,21,81,20.79,28.95,0,174,400,14663,18475,354,-81.75,-78.31,-0,0.01,-0,0.01,-0.03,0.29,-0.07,0.19,38.75,13.25,33.75,85.75,-9.74,1.67,0.21,-7.86,-9.7,1.37,0.28,-8.05,-102407.07,-80760.2,-0.01
21273,0,21,273,20.81,28.99,0,175,400,14659,18471,354.31,-81.88,-78.38,-0.02,0.02,-0,0,0,-0.18,0.33,0.15,38.75,13.25,32.88,84.88,-9.71,1.17,0.6,-7.94,-9.7,1.35,0.27,-8.08,-102407.07,-84077.96,0
21460,0,21,460,20.79,28.94,0,174,400,14660,18467,355.06,-82.06,-81.62,0.12,0.03,-0.02,0.13,0.05,0.4,-0.43,0.02,39.88,13.69,31.75,85.32,-9.65,1.73,-0.23,-8.15,-9.71,1.33,0.19,-8.19,-101532.84,-77084.16,0.01
21650,0,21,650,20.81,28.95,0,167,400,14669,18482,355.44,-82.38,-82.12,-0,0.01,0,0.01,-0.14,-0.7,0.73,-0.11,38.56,13.38,31.88,83.82,-9.86,0.57,0.9,-8.39,-9.72,1.28,0.17,-8.27,-104059.85,-89719.16,-0.03
21841,0,21,841,20.77,28.95,0,169,400,14665,18485,354.94,-81.94,-86.5,0.01,0.04,0.02,0.07,0.01,0.17,-0.45,-0.27,40,13.06,31.75,84.81,-9.69,1.55,-0.38,-8.52,-9.7,1.37,0.07,-8.26,-103877.44,-86618.27,0
22026,0,22,26,20.8,29,0,161,400,14676,18499,354.75,-81.88,-87.94,-0.06,-0.01,-0.02,-0.09,0.02,-0.13,0.27,0.16,39.19,13.5,31.25,83.94,-9.68,1.24,0.32,-8.12,-9.7,1.38,0.04,-8.28,-103535.19,-88842.9,0
22218,0,22,218,20.79,28.95,0,151,400,14684,18501,355,-82.12,-86.94,-0.08,-0.01,0.01,-0.08,0.02,0.01,0.41,0.44,38.38,13.5,31.69,83.57,-9.69,1.34,0.48,-7.87,-9.71,1.33,0.07,-8.31,-103166.55,-88658.58,0
22402,0,22,402,20.79,29.01,0,154,400,14691,18509,355.19,-82.12,-87.31,-0,0.02,-0.02,0,-0.02,-0.31,-0.14,-0.47,40.19,13.5,31.69,85.38,-9.73,1.01,-0.08,-8.8,-9.71,1.33,0.06,-8.32,-103505.11,-93906.26,-0
22592,0,22,592,20.8,29,0,150,400,14687,18509,354.88,-82.12,-87.19,-0.01,-0.01,0,-0.02,-0.03,-0.22,0.11,-0.14,38.38,14,30.75,83.13,-9.75,1.11,0.18,-8.46,-9.71,1.33,0.06,-8.32,-104046.61,-97877.26,-0.01
22778,0,22,778,20.79,28.98,0,143,400,14695,18514,354.62,-82.06,-86.88,-0.08,0.01,0,-0.07,-0.06,-0.25,-0.66,-0.97,39.06,14.25,31.25,84.56,-9.78,1.09,-0.59,-9.28,-9.71,1.34,0.07,-8.3,-105084.49,-102201.76,-0.01
22970,0,22,970,20.79,29.02,0,146,400,14689,18510,354.38,-81.88,-84.31,0,0.01,-0,0.01,-0.01,0.3,0.26,0.55,39.06,13.56,31.19,83.81,-9.68,1.68,0.3,-7.7,-9.7,1.37,0.13,-8.2,-105268.81,-96672.16,-0
23163,0,23,163,20.79,29,0,148,400,14690,18506,354.75,-81.94,-85.5,-0.01,0.03,-0.02,-3.46944695195361e-18,0.01,-0.21,-0.22,-0.42,38.06,14,31.19,83.25,-9.72,1.14,-0.17,-8.75,-9.71,1.35,0.1,-8.26,-105082.56,-100583.3,0
23347,0,23,347,20.79,29,0,140,400,14698,18515,355.06,-82.31,-86.69,-0.04,-0.01,0,-0.05,0.01,0.1,0.28,0.39,38.06,13.5,31.56,83.12,-9.7,1.41,0.36,-7.93,-9.71,1.3,0.07,-8.34,-104913.28,-98890.5,0
23537,0,23,537,20.79,29.03,0,136,400,14704,18526,355.06,-82.25,-85.81,-0.02,0.01,0,-0.01,0,-0.08,0.03,-0.05,38.75,13.88,30.75,83.38,-9.72,1.22,0.12,-8.38,-9.71,1.3,0.09,-8.32,-104913.28,-100334.5,0
23722,0,23,722,20.81,28.98,0,134,400,14708,18531,355.06,-82.31,-86.06,-0.16,0.01,-0.01,-0.16,-0.05,-0.18,-0.3,-0.53,40.19,13.88,30.75,84.82,-9.77,1.11,-0.21,-8.87,-9.71,1.3,0.08,-8.33,-105768.91,-103414.75,-0.01
23912,0,23,912,20.77,28.98,0,135,400,14720,18534,355.12,-82.38,-85.19,0.02,-0.01,-0,0.01,0.02,-0.41,0.24,-0.15,40.19,13.5,30.75,84.44,-9.69,0.87,0.34,-8.48,-9.72,1.28,0.1,-8.34,-105407.91,-110815.25,0
24095,0,24,95,20.8,29.01,0,126,400,14717,18541,355,-82.31,-85,-0.05,0.01,0.02,-0.02,0.02,0.19,0,0.21,39.88,13.06,30.75,83.69,-9.67,1.51,0.16,-8,-9.71,1.3,0.11,-8.3,-105073.02,-107633.8,0
24288,0,24,288,20.79,29,0,130,400,14719,18539,354.69,-82.19,-85.19,0.02,-0.01,-0.01,0,0,-0.01,0.04,0.03,39.5,13.56,30.06,83.12,-9.7,1.3,0.15,-8.25,-9.71,1.32,0.1,-8.29,-105073.02,-107820.04,0
24479,0,24,479,20.79,28.98,0,129,400,14721,18536,354.94,-82.44,-84.69,-0.05,0.01,-0.02,-0.06,-0.03,-0.57,-0.05,-0.65,39.5,13.5,30.88,83.88,-9.75,0.71,0.06,-8.98,-9.72,1.28,0.11,-8.33,-105620.24,-118217.13,-0.01
24663,0,24,663,20.8,29.01,0,127,400,14724,18560,354.75,-82.31,-83.81,0.02,0.01,0.03,0.06,0.04,-0.05,0.28,0.27,38.06,13.06,30.88,82,-9.67,1.24,0.42,-8.01,-9.71,1.3,0.14,-8.27,-104943.12,-119063.53,0.01
24852,0,24,852,20.77,29.03,0,122,400,14724,18552,354.81,-82.31,-84.06,0.05,-0.03,-0.04,-0.02,0.09,0.13,0.26,0.48,39.5,13.5,30.5,83.5,-9.62,1.43,0.39,-7.8,-9.71,1.3,0.13,-8.28,-103335.67,-116741.66,0.02
25037,0,25,37,20.79,28.97,0,122,400,14728,18546,355.31,-82.62,-82.81,0.05,0.01,0.02,0.08,0.03,-0.13,0.15,0.05,39.06,13.88,31.56,84.5,-9.68,1.1,0.31,-8.27,-9.72,1.24,0.15,-8.33,-102822.29,-118966.29,0.01
25229,0,25,229,20.8,29.03,0,120,400,14727,18552,355.44,-82.75,-85.75,0,0.01,0,0.01,-0.01,-0.28,-0.45,-0.74,39.5,14.19,32.38,86.07,-9.77,1.11,-0.38,-9.04,-9.72,1.22,0.08,-8.42,-103006.61,-124127.25,-0
25417,0,25,417,20.77,29,0,114,400,14730,18555,355.5,-82.69,-85.06,-0.05,-0.01,-0.01,-0.07,0,0,0.16,0.16,38.75,13.75,31.19,83.69,-9.72,1.24,0.27,-8.21,-9.72,1.24,0.1,-8.38,-103006.61,-124127.25,0
25606,0,25,606,20.79,29.01,0,114,400,14737,18564,355.19,-82.5,-82.44,-0.05,0.04,0.01,-1.73472347597681e-18,0.05,0.11,0.13,0.29,38.38,13.75,30.5,82.63,-9.66,1.37,0.29,-8,-9.72,1.25,0.16,-8.31,-102113.59,-122162.59,0.01
25797,0,25,797,20.77,29.04,0,113,400,14741,18561,354.94,-82.56,-85.56,0.01,0.01,-0.01,0.01,-0.11,-0.14,-0.37,-0.62,39.06,13.75,30.5,83.31,-9.84,1.11,-0.27,-9,-9.72,1.25,0.09,-8.38,-104120.04,-124716.26,-0.02
25984,0,25,984,20.77,29.01,0,103,400,14746,18572,354.94,-82.56,-86.44,-0.02,-0.04,-0,-0.06,0,0.2,0.02,0.22,39.5,14.06,30.5,84.06,-9.76,1.47,0.08,-8.21,-9.72,1.26,0.08,-8.38,-104120.04,-121219.36,0
26170,0,26,170,20.79,28.98,0,109,400,14738,18574,355.06,-82.62,-82.88,0.01,0.02,0.02,0.05,-0.02,-0.01,0.2,0.17,39,14.06,31.56,84.62,-9.74,1.23,0.35,-8.16,-9.72,1.24,0.15,-8.33,-104466,-121392.34,-0
26356,0,26,356,20.76,28.95,0,101,400,14743,18573,355.19,-82.62,-85,0.03,0.04,-0,0.07,0.02,0.14,-0.14,0.02,39,13.38,31.56,83.94,-9.7,1.39,-0.04,-8.35,-9.72,1.25,0.1,-8.37,-104120.04,-118970.62,0
26546,0,26,546,20.79,29.02,0,98,400,14755,18591,355.06,-82.69,-86.75,-0.04,-0.01,0,-0.05,0.18,0.02,-0.13,0.07,40.06,13.69,30.06,83.81,-9.54,1.26,-0.06,-8.34,-9.72,1.24,0.07,-8.41,-100871.04,-118609.62,0.03
26731,0,26,731,20.79,29.01,0,98,400,14755,18588,354.94,-82.69,-86.5,0.01,-0.02,0,-0.01,-0.13,-0.14,0.11,-0.16,39.69,14.38,31.56,85.63,-9.85,1.1,0.18,-8.57,-9.72,1.24,0.07,-8.41,-103095.67,-121005.37,-0.02
26923,0,26,923,20.79,28.97,0,101,400,14756,18589,354.88,-82.56,-85.81,-0.01,0.01,0.01,0.01,-0.01,0.09,-0.02,0.06,38.56,13.69,30.88,83.13,-9.74,1.34,0.06,-8.34,-9.72,1.25,0.09,-8.38,-103279.99,-119346.49,-0
27115,0,27,115,20.76,28.96,0,95,400,14757,18590,354.94,-82.69,-86.06,0.03,-0,0,0.03,-0.02,-0.45,-0.1,-0.57,38.69,14,31.56,84.25,-9.71,1.11,-0.28,-8.88,-9.72,1.24,0.08,-8.4,-103648.63,-127640.89,-0
27301,0,27,301,20.76,28.95,0,90,400,14765,18593,354.81,-82.5,-84.44,-0.01,-0.03,-0,-0.04,0.05,0.06,0.21,0.32,39.38,13.25,30.88,83.51,-9.66,1.33,0.33,-8,-9.72,1.26,0.12,-8.34,-102783.73,-126603.01,0.01
27493,0,27,493,20.77,28.94,0,83,400,14766,18610,354.69,-82.44,-83.38,0.07,-0.01,0.01,0.07,-0.04,0.16,0.38,0.5,39.75,13.69,30.88,84.32,-9.76,1.44,0.53,-7.79,-9.72,1.27,0.14,-8.31,-103521.01,-123653.89,-0.01
27680,0,27,680,20.8,28.97,0,81,400,14762,18610,354.44,-82.38,-84.75,-0.04,0.01,0.01,-0.02,0.09,0.09,-0.19,-0.01,39.75,13.69,30.5,83.94,-9.63,1.38,-0.07,-8.32,-9.72,1.29,0.11,-8.32,-101947.4,-122080.28,0.02
27883,0,27,883,20.77,28.93,0,78,400,14776,18613,354.12,-82.12,-85.5,-0.06,-0.03,0.03,-0.06,-0.06,-0.11,-0.27,-0.44,39.75,13.25,31.69,84.69,-9.78,1.21,-0.17,-8.74,-9.71,1.33,0.1,-8.28,-103183.67,-124346.78,-0.01
28066,0,28,66,20.79,28.92,0,84,400,14764,18603,353.38,-81.81,-82.38,-0,-0.01,-0.03,-0.04,0.14,-0.16,0.49,0.47,39.38,13,30.5,82.88,-9.59,1.17,0.57,-7.85,-9.7,1.37,0.18,-8.15,-100839.44,-127025.9,0.03
28258,0,28,258,20.76,28.95,0,79,400,14777,18613,353.75,-81.81,-82.62,-0,-0,0.04,0.04,-0.38,-0.07,0.36,-0.09,38,12.88,30.5,81.38,-9.53,1.51,0.15,-7.87,-9.7,1.38,0.17,-8.15,-107843.6,-128316.14,-0.07
28451,0,28,451,20.76,28.96,0,73,400,14777,18615,353.88,-81.94,-83.56,0.12,-0,-0.09,0.03,-0.27,-0.15,0.09,-0.33,39,12.19,31.06,82.25,-9.98,1.19,0.24,-8.55,-9.71,1.35,0.15,-8.21,-112872.22,-131109.82,-0.05
28636,0,28,636,20.76,28.94,0,73,400,14781,18619,354.19,-82.12,-86.94,0.12,-0.06,-0.1,-0.04,0.16,0.74,-3.2,-2.3,38,13.25,31.56,82.81,-9.55,2.08,-3.13,-10.6,-9.71,1.33,0.07,-8.31,-110134.22,-118446.56,0.03
28822,0,28,822,20.76,28.95,0,67,400,14780,18628,354.75,-82.75,-77.69,-0.05,-0.15,0.09,-0.11,0.01,-0.65,2.42,1.78,39,13.25,32.38,84.63,-9.71,0.55,2.7,-6.46,-9.72,1.21,0.27,-8.24,-109961.24,-129690.26,0
29007,0,29,7,20.79,28.97,0,70,400,14788,18636,354.75,-82.25,-86,0.17,0.03,-0.04,0.16,-0.9,-0.47,-1.25,-2.62,38.88,12.75,30.06,81.69,-10.62,0.83,-1.16,-10.95,-9.71,1.31,0.09,-8.31,-125362.49,-137733.14,-0.17
29200,0,29,200,20.79,28.97,0,65,400,14778,18624,353.62,-81.94,-84.25,0.07,-0.02,-0.01,0.04,-0.24,-0.12,-0.66,-1.02,38.69,12.69,30.88,82.26,-10.23,0.98,-0.32,-9.57,-9.71,1.35,0.13,-8.23,-129832.37,-139968.08,-0.05
29387,0,29,387,20.77,28.91,0,65,400,14791,18645,353.75,-82.06,-79.12,0.13,-0.02,0.01,0.12,0.16,0.04,1.59,1.79,38.56,12.69,30.88,82.13,-9.54,1.36,1.84,-6.34,-9.71,1.32,0.25,-8.14,-127034.85,-139268.7,0.03
29576,0,29,576,20.75,29.01,0,63,400,14789,18632,354.06,-82.25,-83.94,-0.08,0.01,-0.03,-0.1,-0.12,-0.46,-0.58,-1.16,39.75,13.69,29.69,83.13,-9.84,0.84,-0.44,-9.44,-9.71,1.3,0.13,-8.28,-129178.11,-147484.53,-0.02
29760,0,29,760,20.76,28.98,0,64,400,14791,18635,354,-82.19,-81.75,-0.14,-0.01,-0.01,-0.16,0.1,-0.21,0.56,0.45,40.5,13.75,30.5,84.75,-9.61,1.1,0.75,-7.76,-9.71,1.31,0.19,-8.21,-127485.31,-151039.41,0.02
29956,0,29,956,20.76,28.99,0,62,400,14793,18639,353.81,-82.12,-81.19,-0.04,-0.02,0.04,-0.02,0,0.38,0.47,0.85,40.06,13.5,29.69,83.25,-9.7,1.71,0.68,-7.31,-9.71,1.32,0.2,-8.19,-127485.31,-143740.37,0
30147,0,30,147,20.75,28.95,0,61,400,14793,18640,354.12,-82.25,-82.12,-0.1,0.01,-0.02,-0.11,0,-0.4,-0.21,-0.61,40.5,13.69,30.06,84.25,-9.72,0.89,-0.03,-8.86,-9.71,1.3,0.18,-8.23,-127485.31,-151036.57,0
30330,0,30,330,20.75,28.99,0,58,400,14797,18652,354.06,-82.25,-81.25,-0.09,-0.03,0.02,-0.1,-0.03,-0.08,0.27,0.16,38.25,13.38,30.5,82.13,-9.75,1.22,0.47,-8.06,-9.71,1.3,0.19,-8.22,-127987.64,-152376.13,-0.01
30518,0,30,518,20.72,28.99,0,55,400,14801,18651,353.94,-82.12,-80.81,-0.04,0.04,-0.01,-0.01,-0.05,-0.2,-0.19,-0.44,39.06,13.38,31.19,83.63,-9.77,1.1,0,-8.67,-9.71,1.31,0.2,-8.2,-128871.24,-155910.53,-0.01
30703,0,30,703,20.76,28.95,0,54,400,14806,18657,353.75,-82.19,-83,-0.05,0.01,0.03,-0.01,-0.07,-0.06,-0.07,-0.2,39.38,14.06,30.88,84.32,-9.78,1.25,0.08,-8.45,-9.71,1.31,0.16,-8.24,-130069.12,-156937.28,-0.01
30896,0,30,896,20.73,28.92,0,56,400,14802,18646,353.25,-81.81,-82.94,0.01,0.04,-0.02,0.03,-0.08,-0.25,-0.7,-1.03,39.38,13.38,30.06,82.82,-9.78,1.11,-0.53,-9.2,-9.7,1.37,0.16,-8.17,-131559.08,-161593.4,-0.02
31080,0,31,80,20.76,28.93,0,50,400,14807,18653,353.06,-81.81,-82.88,0.01,0,0.01,0.02,-0.02,0.01,0.12,0.11,39.75,13.69,30.06,83.5,-9.73,1.39,0.3,-8.04,-9.7,1.38,0.17,-8.15,-131897.64,-161424.12,-0
31270,0,31,270,20.76,28.97,0,50,400,14807,18663,353.06,-81.75,-83.19,0.03,-0.01,-0.01,0.01,0,-0.21,-0.16,-0.37,39.38,12.56,29.56,81.5,-9.69,1.17,0,-8.52,-9.7,1.39,0.16,-8.15,-131897.64,-165214.62,0
31460,0,31,460,20.77,28.91,0,51,400,14808,18659,353.06,-81.75,-83.38,0.01,0,-0,0.01,0.01,0.16,-0.46,-0.29,40.06,13,30,83.06,-9.69,1.56,-0.3,-8.43,-9.7,1.39,0.16,-8.15,-131717.14,-162326.62,0
31646,0,31,646,20.77,28.93,0,45,400,14810,18670,353.06,-81.75,-82.88,-0.02,0.01,-0,-0.01,-0.01,0.18,0.27,0.44,39.75,13.69,31.06,84.5,-9.71,1.57,0.44,-7.7,-9.7,1.39,0.17,-8.14,-131890.12,-159212.98,-0
31839,0,31,839,20.73,28.92,0,44,400,14814,18671,353.12,-81.75,-83.06,-0.01,0,0,-0.01,0,-0.02,0.01,-0.01,40.06,13.69,29.56,83.31,-9.7,1.37,0.18,-8.15,-9.7,1.39,0.16,-8.15,-131890.12,-159585.47,0
32024,0,32,24,20.76,28.91,0,46,400,14813,18666,353.25,-81.75,-83.31,0.03,0,0,0.03,0.02,-0.14,0.04,-0.08,39.69,12.56,30,82.25,-9.68,1.23,0.21,-8.24,-9.7,1.38,0.16,-8.16,-131547.87,-161981.22,0
32214,0,32,214,20.76,28.92,0,38,400,14810,18664,353.25,-81.81,-83.38,-0.01,-0,0,-0.01,-0.03,-0.31,-0.04,-0.38,38.56,13.38,30.38,82.32,-9.74,1.06,0.1,-8.58,-9.7,1.37,0.15,-8.18,-132089.37,-167576.72,-0.01
32399,0,32,399,20.75,28.95,0,37,400,14823,18676,353.06,-81.88,-83.12,0.01,-0,0,0.01,0,0.09,0.01,0.1,39,12.56,30,81.56,-9.7,1.46,0.17,-8.07,-9.7,1.37,0.16,-8.17,-132089.37,-166036.6,0
32591,0,32,591,20.75,28.92,0,34,400,14825,18680,353.06,-81.88,-83.06,-0.01,0,0,-0.01,0.04,0.08,-0.31,-0.19,39.25,13,29.56,81.81,-9.65,1.44,-0.2,-8.41,-9.7,1.36,0.16,-8.18,-131352.09,-164562.04,0.01
32783,0,32,783,20.73,28.89,0,40,400,14830,18682,353.06,-81.94,-81.75,0.02,-0.05,-0.01,-0.04,-0.02,0.03,0.27,0.28,38.19,13,30,81.19,-9.73,1.39,0.47,-7.87,-9.7,1.35,0.2,-8.15,-131720.73,-164009.08,-0
32968,0,32,968,20.75,28.95,0,38,400,14830,18689,353.44,-82.06,-80.12,0.02,0.03,-0.01,0.04,0.07,-0.27,-0.01,-0.21,39.69,13.69,30.38,83.76,-9.63,1.05,0.21,-8.37,-9.71,1.33,0.23,-8.15,-130522.85,-168629.45,0.01
33157,0,33,157,20.75,28.93,0,32,400,14825,18685,353.44,-82.06,-80.25,0.02,0.04,0.01,0.07,-0.06,-0.16,-0.06,-0.28,39.25,13.69,29.56,82.5,-9.78,1.16,0.15,-8.47,-9.71,1.32,0.22,-8.17,-131594.48,-171487.13,-0.01
33342,0,33,342,20.73,28.96,0,29,400,14824,18684,352.81,-81.88,-83.19,-0.02,-0.03,0.01,-0.04,-0.04,0.03,0,-0.01,39.25,12.56,30.75,82.56,-9.74,1.41,0.15,-8.18,-9.7,1.37,0.16,-8.17,-132278.98,-170973.76,-0.01
33531,0,33,531,20.73,28.92,0,32,400,14829,18687,352.62,-81.75,-83,0.02,0.01,0.02,0.05,-0.07,0.24,-0.18,-0.01,38.19,13.38,30.75,82.32,-9.78,1.63,-0.01,-8.16,-9.7,1.38,0.16,-8.16,-133516.02,-166732.48,-0.01
33716,0,33,716,20.77,28.92,0,25,400,14836,18703,353.12,-82,-83.06,0.02,0.01,-0.02,0.01,0.06,-0.23,-0.05,-0.22,39,12.56,30.38,81.94,-9.64,1.1,0.1,-8.44,-9.71,1.34,0.16,-8.21,-132489.27,-170668.35,0.01
33907,0,33,907,20.75,28.92,0,26,400,14843,18700,353.25,-82.12,-83.38,0.06,0,-0.03,0.03,0.05,-0.04,0.36,0.37,39.69,13,30.75,83.44,-9.71,1.22,0.48,-8.01,-9.71,1.32,0.15,-8.24,-131577.25,-171397.97,0.01
34098,0,34,98,20.76,28.92,0,20,400,14841,18703,353.06,-82.25,-84.5,-0.04,0.01,0.02,-0.01,1.27,0.39,0.17,1.83,39.69,13,30.38,83.07,-8.43,1.71,0.3,-6.42,-9.71,1.31,0.12,-8.28,-108411.81,-164284.18,0.24
34283,0,34,283,20.75,28.93,0,23,400,14839,18703,353.31,-82.62,-85.81,0.01,0,-0.06,-0.05,-0.08,-0.62,-0.33,-1.03,39,13.5,31.06,83.56,-9.81,0.63,-0.23,-9.41,-9.72,1.25,0.09,-8.38,-109780.81,-174893.93,-0.01
34478,0,34,478,20.75,28.93,0,18,400,14841,18706,353.5,-82.5,-85,0.02,0,0,0.02,-0.05,-0.09,-0.18,-0.32,39,13.06,30.5,82.56,-9.78,1.17,-0.07,-8.68,-9.72,1.26,0.1,-8.36,-110731.44,-176605.06,-0.01
34664,0,34,664,20.75,28.95,0,11,400,14845,18710,353.25,-82.38,-84.06,-0.01,0.01,0,0,0.08,0.32,0.12,0.52,40,13.38,30.38,83.76,-9.63,1.61,0.25,-7.77,-9.72,1.29,0.13,-8.3,-109362.44,-171129.06,0.01
34856,0,34,856,20.73,28.97,0,17,400,14849,18706,353.31,-82.5,-84.69,0.05,-0.01,0,0.04,0,-0.01,0.04,0.03,39.25,12.69,30.88,82.82,-9.71,1.25,0.16,-8.3,-9.72,1.26,0.11,-8.35,-109362.44,-171313.38,0
35039,0,35,39,20.76,28.96,0,19,400,14841,18708,353.5,-82.62,-84.75,-0.01,-0.01,0,-0.02,0,-0.2,0.07,-0.13,38.56,12.69,30.5,81.75,-9.73,1.03,0.18,-8.52,-9.72,1.24,0.11,-8.37,-109362.44,-174662.28,0
35231,0,35,231,20.75,28.92,0,16,400,14847,18715,353.19,-82.56,-84.44,-0.04,0.01,-0.01,-0.04,-0.02,-0.1,0.01,-0.11,38.56,13.75,30.5,82.81,-9.74,1.15,0.13,-8.46,-9.72,1.26,0.12,-8.34,-109731.08,-176505.48,-0
35421,0,35,421,20.76,28.95,0,7,400,14857,18721,353.25,-82.5,-84.25,0.02,0,-0.01,0.01,0.02,0.05,0.07,0.14,39,13.38,30.06,82.44,-9.7,1.31,0.2,-8.19,-9.72,1.26,0.12,-8.34,-109370.08,-175602.98,0
35606,0,35,606,20.72,28.95,0,11,400,14845,18712,353.31,-82.62,-84.25,-0.06,0,0.01,-0.05,0.02,-0.05,-0.08,-0.11,38.56,14.06,30,82.62,-9.7,1.18,0.04,-8.48,-9.72,1.24,0.12,-8.36,-109027.83,-176458.6,0
35795,0,35,795,20.75,28.92,0,4,400,14854,18720,353.19,-82.62,-84.12,0.01,-0.01,0.01,0.01,0.02,0.08,0.04,0.14,39.25,13.38,30.88,83.51,-9.7,1.33,0.17,-8.2,-9.72,1.24,0.12,-8.36,-108670.62,-175029.76,0
35979,0,35,979,20.75,28.93,0,4,400,14855,18721,353.25,-82.62,-84.06,0.01,0.01,-0,0.02,-0.01,0.02,-0.08,-0.07,37.88,13.69,30.5,82.07,-9.74,1.27,0.04,-8.43,-9.72,1.25,0.12,-8.35,-108839.9,-174691.2,-0
36172,0,36,172,20.75,28.92,0,7,400,14850,18716,353.19,-82.62,-83.94,0.02,0,0,0.02,0,-0.1,-0.02,-0.12,38.56,13.38,31.06,83,-9.72,1.15,0.08,-8.49,-9.72,1.24,0.13,-8.35,-108839.9,-176553.65,0
36358,0,36,358,20.76,28.95,0,0,400,14863,18741,353.12,-82.62,-83.88,0.01,0.01,-0,0.02,0,0.07,0,0.07,38.56,13,30.38,81.94,-9.71,1.32,0.12,-8.27,-9.72,1.24,0.13,-8.35,-108839.9,-175342.79,0
36548,0,36,548,20.75,28.92,0,1,400,14859,18731,353.06,-82.62,-83.88,0,-0,-0,0,0,-0.02,0.03,0.01,39.25,13.38,30,82.63,-9.72,1.22,0.16,-8.34,-9.72,1.24,0.13,-8.35,-108839.9,-175703.79,0
36731,0,36,731,20.76,28.97,0,5,400,14858,18729,353.06,-82.62,-83.88,-0.03,0,0,-0.03,0.02,-0.04,0.05,0.03,39,13.69,30.75,83.44,-9.7,1.18,0.15,-8.37,-9.72,1.24,0.13,-8.35,-108505.01,-176373.57,0
36925,0,36,925,20.75,28.95,0,0,400,14863,18740,352.94,-82.62,-83.75,-0.01,0,0.01,0,-0.01,0.04,0.11,0.14,38.19,14.06,30.88,83.13,-9.74,1.29,0.25,-8.2,-9.72,1.24,0.13,-8.35,-108693.19,-175620.85,-0
37116,0,37,116,20.75,28.95,0,0,400,14867,18740,353,-82.62,-83.88,0,0,0,0,0,0,-0.16,-0.16,39.25,13,30.5,82.75,-9.73,1.24,-0.02,-8.51,-9.72,1.24,0.13,-8.35,-108693.19,-175620.85,0
37301,0,37,301,20.76,28.92,0,0,400,14870,18742,352.75,-82.62,-83.62,-0.01,-0,0.01,0,0,-0.02,0.03,0.01,39.69,13.38,30.38,83.45,-9.73,1.22,0.17,-8.34,-9.72,1.24,0.13,-8.35,-108693.19,-175963.1,0
37490,0,37,490,20.73,28.93,0,0,400,14871,18747,352.62,-82.56,-83.56,0.02,0,0,0.02,0,0.07,-0.01,0.06,39.25,13.38,30.38,83.01,-9.71,1.34,0.12,-8.25,-9.72,1.26,0.14,-8.32,-108693.19,-174712.87,0
37674,0,37,674,20.75,29.01,0,0,400,14874,18754,352.62,-82.56,-83.62,0.01,-0,0,0.01,0,0.03,0.1,0.13,39.69,13.38,30,83.07,-9.73,1.27,0.12,-8.34,-9.72,1.26,0.14,-8.32,-108693.19,-174205.03,0
37867,0,37,867,20.76,28.97,0,0,400,14874,18739,352.56,-82.56,-83.56,-0,0,0,0,0,0.12,0.03,0.15,39.25,13,29.25,81.5,-9.71,1.37,0.17,-8.17,-9.72,1.26,0.14,-8.32,-108693.19,-171970.09,0
38053,0,38,53,20.76,28.96,0,0,400,14865,18747,352.62,-82.56,-83.62,-0.01,-0,-0,-0.01,0,-0.05,0.08,0.03,39.25,13.69,30.75,83.69,-9.71,1.2,0.22,-8.29,-9.72,1.25,0.14,-8.33,-108693.19,-172834.99,0
38242,0,38,242,20.75,28.96,0,0,400,14878,18757,352.5,-82.56,-83.5,-0.02,-0,0.01,-0.01,0,-0.01,0.01,0,39,13.38,31.06,83.44,-9.71,1.23,0.15,-8.33,-9.72,1.25,0.14,-8.33,-108693.19,-173013.59,0
38432,0,38,432,20.76,28.92,0,0,400,14882,18764,352.44,-82.56,-83.38,-0.03,0,-0.01,-0.04,0.01,0,0.03,0.04,39.25,13.38,31.06,83.69,-9.7,1.26,0.18,-8.26,-9.72,1.25,0.14,-8.33,-108512.69,-173013.59,0
38617,0,38,617,20.73,28.98,0,0,400,14872,18753,352.5,-82.56,-83.5,0.03,-0,-0,0.03,0,-0.04,0,-0.04,39.25,12.56,29.25,81.06,-9.71,1.21,0.15,-8.35,-9.72,1.25,0.14,-8.33,-108512.69,-173698.09,0
38806,0,38,806,20.75,28.98,0,0,400,14882,18762,352.44,-82.56,-83.38,-0.03,-0,-0,-0.03,0,0.05,-0.09,-0.04,39.25,12.88,30,82.13,-9.72,1.31,0.04,-8.37,-9.72,1.25,0.14,-8.33,-108512.69,-172805.07,0
38990,0,38,990,20.76,28.96,0,0,400,14880,18760,352.38,-82.56,-83.31,-0.01,0,0.01,0,0,0.02,0.03,0.05,39.25,13.25,30.38,82.88,-9.71,1.25,0.22,-8.24,-9.72,1.25,0.14,-8.33,-108512.69,-172466.51,0
39185,0,39,185,20.73,29.02,0,0,400,14882,18772,352.31,-82.56,-83.25,-0.03,-0,0.01,-0.02,-0.01,-0.03,0,-0.04,38.19,12.88,31.19,82.26,-9.73,1.22,0.14,-8.37,-9.72,1.25,0.14,-8.33,-108702.81,-173036.88,-0
39370,0,39,370,20.73,28.98,0,0,400,14879,18761,352.25,-82.56,-83.12,0.01,0.01,-0,0.02,0.02,0.18,0.14,0.34,39,13.38,30.38,82.76,-9.66,1.45,0.23,-7.98,-9.72,1.25,0.15,-8.32,-108360.56,-169956.63,0
39562,0,39,562,20.73,28.99,0,0,400,14889,18766,352.44,-82.62,-83.19,-0,-0,-0.01,-0.01,0,-0.13,-0.14,-0.27,39,13,30,82,-9.73,1.11,0.03,-8.59,-9.72,1.24,0.14,-8.34,-108360.56,-172352.79,0
39747,0,39,747,20.73,29.02,0,0,400,14886,18765,352.38,-82.62,-83.12,0.01,0,0,0.01,0.01,0.05,0.14,0.2,39,13.38,30.75,83.13,-9.7,1.29,0.29,-8.12,-9.72,1.24,0.14,-8.34,-108189.44,-171497.17,0
39938,0,39,938,20.75,28.95,0,0,400,14890,18782,352.25,-82.62,-83.06,-0.01,0,0.01,0,0.01,0.03,0.03,0.07,39.69,13.69,30.38,83.76,-9.7,1.28,0.18,-8.24,-9.72,1.24,0.15,-8.33,-108007.03,-170949.95,0
40131,0,40,131,20.73,28.98,0,0,400,14897,18782,352.25,-82.62,-83,-0.01,0.01,-0,0,0,0.16,0.02,0.18,39.25,13,31.19,83.44,-9.72,1.41,0.18,-8.13,-9.72,1.24,0.15,-8.33,-108007.03,-167970.03,0
40317,0,40,317,20.75,28.98,0,0,400,14898,18782,352.38,-82.69,-83.06,-0.01,-0.01,-0.01,-0.03,0,-0.12,0.05,-0.07,39.25,13.56,30,82.81,-9.72,1.11,0.2,-8.41,-9.72,1.23,0.14,-8.35,-108007.03,-170045.79,0
40508,0,40,508,20.75,28.98,0,0,400,14891,18789,352.38,-82.69,-83.12,0.01,0,-0,0.01,0.02,0.03,-0.01,0.04,39.69,12.88,30.38,82.95,-9.69,1.26,0.13,-8.3,-9.72,1.23,0.14,-8.35,-107642.22,-169498.58,0
40692,0,40,692,20.72,28.95,0,0,400,14887,18770,352.25,-82.69,-83,-0.03,0,-0,-0.03,0,0.04,0.04,0.08,39,13.25,29.56,81.81,-9.72,1.28,0.19,-8.25,-9.72,1.23,0.15,-8.34,-107642.22,-168821.46,0
40885,0,40,885,20.72,28.95,0,0,400,14896,18781,352.25,-82.69,-83,0.03,0,-0,0.03,0.04,0.17,-0.02,0.19,38.56,12.5,30.75,81.81,-9.77,1.27,0.2,-8.3,-9.72,1.23,0.15,-8.34,-106897.24,-165655.29,0.01
41071,0,41,71,20.7,28.96,0,0,400,14891,18789,352.25,-82.69,-83,-0.02,-0,-0,-0.02,0,-0.06,-0.08,-0.14,39.69,13.56,29.56,82.81,-9.72,1.17,0.06,-8.49,-9.72,1.23,0.15,-8.34,-106897.24,-166693.17,0
41261,0,41,261,20.73,28.95,0,0,400,14895,18786,352.12,-82.62,-82.94,-0.02,0.01,0.02,0.01,0.01,-0.05,0.03,-0.01,40,14,31.19,85.19,-9.71,1.19,0.18,-8.34,-9.72,1.24,0.15,-8.33,-106716.74,-167595.67,0
41451,0,41,451,20.72,28.96,0,0,400,14895,18786,351.81,-82.5,-82.94,-0,0.01,0.01,0.02,0,0.21,-0.04,0.17,38.19,12.88,30.69,81.76,-9.72,1.47,0.1,-8.15,-9.72,1.26,0.15,-8.31,-106716.74,-163805.17,0
41635,0,41,635,20.72,28.95,0,0,400,14893,18785,351.75,-82.5,-82.25,-0.01,-0.01,-0.01,-0.03,0.01,0,0.08,0.09,39.25,12.5,30.69,82.44,-9.71,1.26,0.25,-8.2,-9.72,1.26,0.17,-8.29,-106547.46,-163805.17,0
41828,0,41,828,20.72,28.92,0,0,400,14894,18788,351.62,-82.5,-82.19,0.02,0.01,0,0.03,0.01,0.01,0.05,0.07,39.56,13.19,31.38,84.13,-9.7,1.28,0.15,-8.27,-9.72,1.26,0.17,-8.29,-106361.22,-163618.93,0
42015,0,42,15,20.75,28.97,0,0,400,14901,18795,351.62,-82.5,-82.5,0.05,-0.01,0.01,0.05,0,0.13,-0.01,0.12,39.19,12.06,30.38,81.63,-9.72,1.4,0.15,-8.17,-9.72,1.26,0.16,-8.3,-106361.22,-161345.94,0
42204,0,42,204,20.75,28.95,0,0,400,14901,18791,351.62,-82.5,-82.5,0.01,0.01,-0.01,0.01,0,-0.11,0.02,-0.09,38.5,12.38,30.38,81.26,-9.72,1.15,0.19,-8.38,-9.72,1.26,0.16,-8.3,-106361.22,-163310.6,0
42388,0,42,388,20.75,28.98,0,0,400,14908,18797,351.5,-82.44,-82.44,0.01,-0,0.01,0.02,0.01,0.16,0,0.17,39.56,12.06,30.69,82.31,-9.72,1.49,0.08,-8.15,-9.72,1.26,0.16,-8.3,-106191.94,-160602.12,0
42581,0,42,581,20.75,28.97,0,0,400,14920,18813,351.5,-82.44,-82.62,-0.01,0.01,0,0,0,0.04,-0.09,-0.05,39.19,12.75,30.38,82.32,-9.73,1.23,0.13,-8.37,-9.72,1.26,0.16,-8.3,-106191.94,-159857.14,0
42767,0,42,767,20.73,28.96,0,0,400,14905,18803,351.5,-82.5,-82.94,-0.02,-0,-0,-0.02,0,0,-0.14,-0.14,39.19,13.19,31.06,83.44,-9.72,1.26,0.01,-8.45,-9.72,1.26,0.15,-8.31,-106191.94,-159857.14,0
42955,0,42,955,20.73,28.99,0,0,400,14905,18801,351.38,-82.5,-82.81,0.01,-0,0,0.01,0,0,0.05,0.05,39,12.88,30,81.88,-9.73,1.27,0.21,-8.25,-9.72,1.26,0.15,-8.31,-106191.94,-159857.14,0
43146,0,43,146,20.73,28.93,0,0,400,14914,18809,351.38,-82.5,-82.81,-0,0,0.01,0.01,0,-0.05,-0.04,-0.09,39.69,13.56,30.69,83.94,-9.72,1.21,0.11,-8.4,-9.72,1.26,0.15,-8.31,-106191.94,-160769.16,0
43330,0,43,330,20.7,28.96,0,0,400,14914,18813,351.19,-82.38,-82.62,-0.03,0.01,-0.01,-0.03,0.02,0.08,0.08,0.18,38.19,12.06,30.69,80.94,-9.69,1.36,0.25,-8.08,-9.72,1.28,0.16,-8.28,-105853.38,-159414.92,0
43519,0,43,519,20.75,28.99,0,0,400,14912,18822,351.19,-82.44,-83.19,0.02,0,0,0.02,0.01,0.02,-0.02,0.01,39.25,13.88,30.25,83.38,-9.7,1.3,0.12,-8.28,-9.72,1.28,0.15,-8.29,-105674.77,-159057.71,0
43702,0,43,702,20.73,28.99,0,0,400,14912,18815,351.19,-82.38,-83.19,-0.01,0.01,-0.01,-0.01,0,0.11,0.07,0.18,39.69,12.75,31,83.44,-9.7,1.31,0.11,-8.28,-9.72,1.28,0.15,-8.29,-105674.77,-157215.82,0
43897,0,43,897,20.72,28.99,0,0,400,14916,18824,351.31,-82.5,-83.5,-0.03,-0.02,0,-0.05,0,-0.06,0.21,0.15,38.5,12.38,30.56,81.44,-9.72,1.19,0.35,-8.18,-9.72,1.26,0.14,-8.32,-105674.77,-158356.57,0
44081,0,44,81,20.7,29.03,0,0,400,14916,18816,351.19,-82.5,-83.06,0,0.01,0.01,0.02,0,0.14,-0.03,0.11,39.56,13.19,29.88,82.63,-9.71,1.41,0.11,-8.19,-9.72,1.26,0.15,-8.31,-105674.77,-155986.65,0
44272,0,44,272,20.73,28.96,0,0,400,14924,18832,351.12,-82.44,-83.5,0,-0,0,0,0,-0.04,0.02,-0.02,39.88,13.19,30.56,83.63,-9.71,1.22,0.16,-8.33,-9.72,1.27,0.14,-8.31,-105674.77,-156716.27,0
44461,0,44,461,20.72,28.99,0,0,400,14921,18821,351.06,-82.44,-83.19,0.03,0.01,0.02,0.06,0.04,0.19,0.27,0.5,39.88,13.5,30.25,83.63,-9.67,1.47,0.43,-7.77,-9.72,1.27,0.15,-8.3,-104960.35,-153322.77,0.01
44645,0,44,645,20.72,28.96,0,0,400,14918,18824,351,-82.38,-83.94,-0.1,-0,0,-0.1,0.04,-0.36,-0.03,-0.35,40,13.25,30.56,83.81,-9.76,1.17,-0.18,-8.77,-9.72,1.28,0.13,-8.31,-104283.23,-159416.85,0.01
44838,0,44,838,20.7,29.01,0,0,400,14922,18824,350.5,-82.31,-82.31,-0.02,-0.03,0.03,-0.02,0.07,0.08,0.55,0.7,39.88,12.88,31.25,84.01,-9.63,1.49,0.65,-7.49,-9.71,1.3,0.17,-8.24,-102979.52,-157926.89,0.01
45023,0,45,23,20.72,29.04,0,0,400,14932,18826,350.44,-82.12,-82.75,-0.05,0.01,-0.03,-0.07,0,0.07,-0.13,-0.06,38.88,12.5,32,83.38,-9.7,1.4,0.03,-8.27,-9.71,1.32,0.16,-8.23,-102979.52,-156729.02,0
45212,0,45,212,20.72,28.97,0,0,400,14923,18825,350.25,-82.19,-82.19,0.04,-0.03,0.02,0.03,0.01,0.04,0.2,0.25,38.88,12.5,29.75,81.13,-9.7,1.35,0.38,-7.97,-9.71,1.31,0.18,-8.22,-102800.91,-156014.6,0
45396,0,45,396,20.72,28.98,0,0,400,14926,18828,350.31,-82.12,-82.12,0,0.02,-0.02,0,0,0.14,0.06,0.2,38.88,12.5,30.5,81.88,-9.72,1.32,0.27,-8.13,-9.71,1.32,0.18,-8.21,-102800.91,-153644.68,0
45589,0,45,589,20.73,28.96,0,0,400,14925,18834,350.56,-82.31,-83.56,0.01,0.01,-0.01,0.01,-0.02,-0.22,-0.16,-0.4,38.06,13.25,30.06,81.37,-9.75,1.03,-0.03,-8.75,-9.71,1.29,0.14,-8.28,-103173.4,-157742.07,-0
45775,0,45,775,20.69,29,0,0,400,14926,18839,350.31,-82.31,-84.31,0,-0.01,0.03,0.02,0.02,0.52,0.16,0.7,37.75,12.88,29,79.63,-9.69,1.82,0.29,-7.58,-9.71,1.3,0.12,-8.29,-102827.44,-148747.11,0
45964,0,45,964,20.72,28.97,0,0,400,14925,18839,350.38,-82.25,-84.25,-0.01,0.02,-0.01,0,0,-0.13,-0.27,-0.4,39.19,12.88,30.5,82.57,-9.71,1.17,-0.13,-8.67,-9.71,1.31,0.13,-8.27,-102827.44,-151068.97,0
46155,0,46,155,20.72,28.98,0,0,400,14927,18845,350.19,-82.31,-84.5,-0.06,-0.02,0.02,-0.06,0.02,0.08,0.21,0.31,38.88,12.88,30.19,81.95,-9.69,1.38,0.33,-7.98,-9.71,1.29,0.12,-8.3,-102462.63,-149609.73,0
46341,0,46,341,20.73,29.05,0,0,400,14935,18842,349.88,-82.06,-82.88,0,0.02,-0.01,0.01,0.01,0.1,-0.01,0.1,39.06,13,29.69,81.75,-9.73,1.34,0.04,-8.35,-9.71,1.33,0.16,-8.22,-102289.65,-147879.93,0
46533,0,46,533,20.7,29.01,0,0,400,14920,18828,350.12,-82.25,-83.81,-0.02,-0,0.01,-0.01,0,-0.15,-0.14,-0.29,38.75,13,30.75,82.5,-9.75,1.23,0.02,-8.5,-9.71,1.3,0.13,-8.28,-102289.65,-150644.73,0
46718,0,46,718,20.73,28.98,0,0,400,14936,18856,349.88,-82,-82.94,0.05,0.02,-0.03,0.04,0.01,0,0.05,0.06,39.19,12.25,31.19,82.63,-9.69,1.34,0.22,-8.13,-9.71,1.35,0.16,-8.2,-102118.53,-150644.73,0
46909,0,46,909,20.72,29.01,0,0,400,14928,18836,350.12,-82.12,-83.88,0.02,-0.02,0.02,0.02,-0.07,-0.31,-0.41,-0.79,39.19,13.5,30.75,83.44,-9.79,1.01,-0.26,-9.04,-9.71,1.32,0.14,-8.25,-103395.36,-156299.29,-0.01
47097,0,47,97,20.72,29.02,0,0,400,14930,18841,349.38,-81.88,-82.31,0.03,0.01,-0.01,0.03,0.05,0.46,0.18,0.69,39.88,12.56,30.06,82.5,-9.64,1.83,0.36,-7.45,-9.7,1.37,0.18,-8.15,-102511.76,-148170.17,0.01
47287,0,47,287,20.7,28.97,0,0,400,14935,18845,349.94,-82,-83.69,0,0.02,-0.02,0,0.03,-0.18,-0.17,-0.32,39.88,12.5,29.69,82.07,-9.67,1.16,-0.02,-8.53,-9.71,1.34,0.14,-8.23,-101970.26,-151419.17,0.01
47476,0,47,476,20.72,28.96,0,0,400,14929,18843,349.75,-82.19,-83.94,-0.13,-0.02,0.01,-0.14,0,-0.16,0.12,-0.04,38.06,13.25,30.38,81.69,-9.72,1.15,0.27,-8.3,-9.71,1.31,0.14,-8.26,-101970.26,-154276.85,0
47661,0,47,661,20.72,29,0,0,400,14939,18851,349.5,-82.06,-83,0.03,0,0.01,0.04,0.02,0.44,0.37,0.83,39.19,12.19,31.19,82.57,-9.68,1.78,0.54,-7.36,-9.71,1.33,0.16,-8.22,-101628.01,-146747.35,0
47854,0,47,854,20.7,28.97,0,0,400,14936,18851,349.94,-82.19,-84.62,-0.07,-0,-0.02,-0.09,0.01,-0.28,-0.12,-0.39,39.56,12.88,29.69,82.13,-9.73,1,0,-8.73,-9.71,1.31,0.12,-8.28,-101441.77,-151962.21,0
48041,0,48,41,20.69,28.99,0,0,400,14936,18848,349.69,-82.25,-84.19,0,0,0.01,0.01,-0.01,-0.03,0,-0.04,38.5,12.19,30.75,81.44,-9.73,1.27,0.13,-8.33,-9.71,1.31,0.13,-8.27,-101616.61,-152486.74,-0
48232,0,48,232,20.7,28.99,0,0,400,14940,18857,349.62,-82.12,-84.19,-0.02,-0,-0.01,-0.03,0.01,0.11,0.23,0.35,38.06,12.5,29.69,80.25,-9.69,1.44,0.36,-7.89,-9.71,1.32,0.13,-8.26,-101434.21,-150480.29,0
48416,0,48,416,20.69,28.96,0,0,400,14934,18852,349.62,-82.12,-84.38,0.09,-0,-0,0.09,0.03,0.15,-0.05,0.13,39.19,12.5,30.06,81.75,-9.71,1.52,-0.08,-8.27,-9.71,1.33,0.12,-8.26,-100926.37,-147941.09,0.01
48611,0,48,611,20.68,28.97,0,0,400,14938,18855,349.56,-82.19,-83.88,-0.04,0,0,-0.04,-0.05,-0.27,0.18,-0.14,38.88,13.25,29.69,81.82,-9.76,1.04,0.33,-8.39,-9.71,1.31,0.14,-8.26,-101876.99,-153074.46,-0.01
48796,0,48,796,20.7,28.97,0,0,400,14941,18853,349.44,-82.12,-83.94,0.02,-0,-0.01,0.01,0.02,0.15,-0.23,-0.06,38.88,12.88,30.06,81.82,-9.68,1.48,-0.09,-8.29,-9.71,1.33,0.14,-8.24,-101534.74,-150507.59,0
48985,0,48,985,20.69,29,0,0,400,14949,18866,349.62,-82.19,-83.19,0.01,0.01,-0.02,0,-0.02,0.01,0.09,0.08,39.19,12.88,30.75,82.82,-9.74,1.33,0.25,-8.16,-9.71,1.31,0.15,-8.25,-101891.95,-150328.98,-0
49187,0,49,187,20.7,29.02,0,0,400,14948,18868,349.81,-82.31,-83.75,-0.03,-0.01,0,-0.04,0,0,-0.46,-0.46,39.19,12.5,30.06,81.75,-9.71,1.29,-0.32,-8.74,-9.71,1.3,0.14,-8.27,-101891.95,-150328.98,0
49370,0,49,370,20.7,29.02,0,0,400,14941,18864,349.56,-82.25,-82.94,0.02,0,0.01,0.03,-0.01,0.14,0.19,0.32,38.88,12.5,30.38,81.76,-9.73,1.44,0.35,-7.94,-9.71,1.3,0.16,-8.25,-102059.4,-147984.75,-0
49562,0,49,562,20.69,28.94,0,0,400,14945,18863,349.56,-82.25,-84.31,-0.03,-0,-0.01,-0.04,0,-0.2,-0.19,-0.39,38.5,12.5,30.06,81.06,-9.71,1.11,-0.06,-8.66,-9.71,1.31,0.13,-8.27,-102059.4,-151671.15,0
49747,0,49,747,20.68,29,0,0,400,14948,18856,349.38,-82.19,-83.06,-0.01,0,0.01,0,0.02,0.06,0.25,0.33,39.56,12.88,30.38,82.82,-9.69,1.37,0.41,-7.91,-9.71,1.31,0.15,-8.25,-101717.15,-150644.4,0
49940,0,49,940,20.69,29,0,0,400,14952,18862,349.38,-82.19,-83.94,-0,0,-0.01,-0.01,0,-0.09,-0.2,-0.29,39.06,13.25,30.38,82.69,-9.72,1.22,-0.06,-8.56,-9.71,1.32,0.13,-8.26,-101717.15,-152320.61,0
50125,0,50,125,20.68,29.02,0,0,400,14946,18858,349.38,-82.19,-83.81,0,0,0,0,0,0.08,0.19,0.27,39.06,12.5,30.38,81.94,-9.7,1.41,0.33,-7.96,-9.71,1.32,0.14,-8.25,-101717.15,-150951.61,0
50315,0,50,315,20.69,28.97,0,0,400,14950,18873,349.38,-82.19,-84.19,-0.02,-0,-0.01,-0.03,-0.01,-0.16,-0.13,-0.3,40.19,12.88,30.38,83.45,-9.73,1.15,0,-8.58,-9.71,1.32,0.13,-8.26,-101897.65,-153839.61,-0
50505,0,50,505,20.69,29.03,0,0,400,14947,18871,349.38,-82.19,-83.88,0.01,0.01,-0,0.02,0,0.07,-0.01,0.06,38,12.19,30.06,80.25,-9.71,1.39,0.12,-8.2,-9.71,1.31,0.14,-8.26,-101897.65,-152576.11,0
50689,0,50,689,20.69,28.97,0,0,400,14953,18878,349.25,-82.25,-84.44,-0.04,-0.01,0,-0.05,-0.01,-0.02,0.24,0.21,38.38,12.88,30.06,81.32,-9.73,1.28,0.36,-8.09,-9.71,1.31,0.12,-8.28,-102066.93,-152914.67,-0
50879,0,50,879,20.7,29,0,0,400,14947,18869,349.19,-82.12,-83.5,-0.03,0.02,-0.01,-0.02,0,0.08,-0.08,0,39.56,13.25,30.06,82.87,-9.7,1.41,0.06,-8.23,-9.71,1.32,0.14,-8.25,-102066.93,-151470.67,0
51063,0,51,63,20.7,29.02,0,0,400,14955,18876,349.19,-82.19,-84.5,0.04,-0.01,0.01,0.04,0,0.03,0.02,0.05,39.56,12.88,30.75,83.19,-9.73,1.41,0.16,-8.16,-9.71,1.32,0.12,-8.27,-102066.93,-150962.83,0
51256,0,51,256,20.69,28.99,0,0,400,14949,18872,349.19,-82.12,-84.25,-0,0.01,-0.01,0,0.02,0.02,-0.01,0.03,38.5,12.5,30.06,81.06,-9.68,1.34,0.11,-8.23,-9.71,1.32,0.13,-8.26,-101694.44,-150590.34,0
51442,0,51,442,20.69,29,0,0,400,14956,18876,349.19,-82.19,-84.81,-0.01,-0.01,-0,-0.02,-0.01,-0.13,-0.1,-0.24,38.5,12.88,31.19,82.57,-9.73,1.18,0.01,-8.54,-9.71,1.31,0.11,-8.29,-101867.42,-152839.08,-0
51630,0,51,630,20.69,28.99,0,0,400,14964,18889,349.06,-82.19,-84,-0.03,0.01,0,-0.02,0,-0.05,-0.08,-0.13,39.88,12.88,29.69,82.45,-9.71,1.26,0.05,-8.4,-9.71,1.32,0.13,-8.26,-101867.42,-153722.68,0
51820,0,51,820,20.69,29,0,0,400,14960,18895,349.12,-82.19,-84.31,-0.01,-0,0,-0.01,0,-0.02,0,-0.02,39.56,13.25,30.06,82.87,-9.72,1.3,0.12,-8.3,-9.71,1.32,0.13,-8.26,-101867.42,-154083.68,0
52004,0,52,4,20.69,29,0,0,400,14955,18876,349.06,-82.19,-84.06,0.03,0.01,0,0.04,-0.01,-0.02,-0.01,-0.04,38.88,12.88,30.75,82.51,-9.73,1.3,0.11,-8.32,-9.71,1.32,0.13,-8.26,-102036.7,-154422.24,-0
52193,0,52,193,20.69,29.02,0,0,400,14964,18885,349.06,-82.19,-84.31,-0.02,-0,-0,-0.02,-0.01,-0.06,-0.02,-0.09,39.19,13.25,29.69,82.13,-9.73,1.25,0.1,-8.38,-9.71,1.32,0.13,-8.26,-102215.3,-155493.87,-0
52376,0,52,376,20.68,29,0,0,400,14961,18887,349,-82.19,-83.94,0.01,0,0,0.01,0,0.08,-0.01,0.07,39.19,12.5,30.06,81.75,-9.71,1.4,0.12,-8.19,-9.71,1.32,0.13,-8.26,-102215.3,-154154.31,0
52569,0,52,569,20.68,29,0,0,400,14951,18882,349,-82.19,-84.12,0.03,-0.01,0,0.02,0.04,0.16,0.12,0.32,39.56,14,30.25,83.81,-9.72,1.49,0.15,-8.08,-9.71,1.32,0.13,-8.26,-101470.32,-151174.39,0.01
52755,0,52,755,20.68,29,0,0,400,14957,18884,349,-82.19,-84.12,-0.02,0,-0,-0.02,0.01,-0.05,-0.05,-0.09,38.88,13.25,30,82.13,-9.7,1.26,0.07,-8.37,-9.71,1.32,0.13,-8.26,-101297.34,-152039.29,0
52950,0,52,950,20.68,28.99,0,0,400,14963,18885,348.88,-82.19,-84.06,0,0,0,0,0.02,0.16,0.2,0.38,38.5,12.5,30,81,-9.73,1.48,0.23,-8.02,-9.71,1.32,0.13,-8.26,-100917.09,-148997.29,0
53135,0,53,135,20.69,29.02,0,0,400,14967,18884,348.94,-82.19,-84.12,0,0,-0,0,0,-0.08,-0.03,-0.11,39.19,13.56,30,82.75,-9.72,1.23,0.09,-8.4,-9.71,1.32,0.13,-8.26,-100917.09,-150366.29,0
53325,0,53,325,20.66,28.99,0,0,400,14961,18891,348.88,-82.19,-84.06,-0.02,-0,-0,-0.02,0,0.05,0.07,0.12,39.56,13.25,29.19,82,-9.72,1.37,0.21,-8.14,-9.71,1.32,0.13,-8.26,-100917.09,-149463.79,0
53515,0,53,515,20.69,28.97,0,0,400,14966,18903,348.88,-82.19,-84.12,0.02,-0,0,0.02,0.01,-0.04,-0.03,-0.06,38.75,12.88,30.69,82.32,-9.7,1.27,0.1,-8.33,-9.71,1.32,0.13,-8.26,-100736.59,-150185.79,0
53699,0,53,699,20.68,28.97,0,0,400,14966,18901,348.81,-82.19,-84,-0,0,0,0,0,-0.03,0.03,0,39.19,14,29.56,82.75,-9.71,1.29,0.17,-8.25,-9.71,1.32,0.13,-8.26,-100736.59,-150693.63,0
53888,0,53,888,20.68,28.97,0,0,400,14969,18901,348.81,-82.19,-84.06,0.01,-0,-0,0.01,0,0,0.02,0.02,39.19,13.25,29.19,81.63,-9.72,1.32,0.16,-8.24,-9.71,1.32,0.13,-8.26,-100736.59,-150693.63,0
54073,0,54,73,20.68,28.97,0,0,400,14964,18905,348.75,-82.19,-84,0.01,0,-0.01,0,0.01,-0.01,0,0,39.19,12.19,30.69,82.07,-9.74,1.32,0.18,-8.24,-9.71,1.32,0.13,-8.26,-100565.47,-150864.75,0
54265,0,54,265,20.68,28.95,0,0,400,14976,18914,349,-82.31,-84.12,0,-0.01,-0.02,-0.03,0,-0.18,-0.07,-0.25,39.19,13.25,28.06,80.5,-9.72,1.11,0.05,-8.56,-9.71,1.29,0.13,-8.29,-100565.47,-154182.51,0
54450,0,54,450,20.68,28.94,0,0,400,14972,18907,349.25,-82.44,-83.06,0.05,0,-0,0.05,0,0.06,0.26,0.32,38.06,14,30.25,82.31,-9.72,1.34,0.42,-7.96,-9.72,1.27,0.15,-8.3,-100565.47,-153155.76,0
54638,0,54,638,20.69,28.97,0,0,400,14972,18905,349.62,-82.62,-84.62,0.06,0.04,0.01,0.11,-0.02,0.07,0.02,0.07,38.75,13.25,30,82,-9.75,1.33,0.13,-8.29,-9.72,1.25,0.11,-8.36,-100918.91,-151918.72,-0
54828,0,54,828,20.68,28.94,0,0,400,14978,18910,349.94,-82.62,-87.44,-0.07,-0.01,-0.01,-0.09,0.01,-0.38,-0.04,-0.41,37.69,14,30,81.69,-9.7,0.86,0,-8.84,-9.72,1.25,0.05,-8.42,-100738.41,-158777.72,0
55013,0,55,13,20.68,28.97,0,0,400,14969,18904,349.19,-82.56,-85.94,-0.01,-0.03,0.03,-0.01,0.01,-0.01,0.27,0.27,38,14,30.69,82.69,-9.71,1.24,0.36,-8.11,-9.72,1.25,0.08,-8.39,-100567.28,-158948.85,0
55203,0,55,203,20.68,28.94,0,0,400,14969,18913,348.38,-82.38,-84.94,-0.03,0.01,0.01,-0.01,0,0.04,0.05,0.09,38.75,13,32.19,83.94,-9.71,1.33,0.17,-8.21,-9.72,1.29,0.11,-8.32,-100567.28,-158226.85,0
55386,0,55,386,20.68,28.94,0,0,400,14979,18913,348.5,-82.38,-84.94,-0.03,0,-0.02,-0.05,-0.02,-0.23,0.18,-0.07,38,13,31.06,82.06,-9.73,1.19,0.23,-8.31,-9.72,1.28,0.11,-8.33,-100902.17,-162078.08,-0
55579,0,55,579,20.66,28.89,0,0,400,14978,18902,348.5,-82.44,-85.12,-0.08,0.01,-0.01,-0.08,0.01,0.04,-0.14,-0.09,39.75,13.69,30.69,84.13,-9.7,1.32,-0.03,-8.41,-9.72,1.27,0.1,-8.35,-100715.93,-161333.1,0
55764,0,55,764,20.66,28.96,0,0,400,14984,18918,348.44,-82.44,-85.06,-0,0.01,-0.01,0,0,0.18,-0.1,0.08,38.75,13,30,81.75,-9.71,1.46,0,-8.25,-9.72,1.28,0.1,-8.34,-100715.93,-158252.85,0
55957,0,55,957,20.66,28.93,0,0,400,14979,18916,348.19,-82.44,-84.94,-0.04,-0,0,-0.04,-0.09,-0.02,-0.29,-0.4,38.75,13.25,30.69,82.69,-9.81,1.25,-0.17,-8.73,-9.72,1.27,0.11,-8.34,-102392.13,-158625.34,-0.02
56146,0,56,146,20.66,28.9,0,0,400,14974,18913,348.19,-82.44,-84.94,-0.01,0,0.01,0,0,0.05,-0.15,-0.1,38.75,12.88,30.25,81.88,-9.72,1.33,-0.03,-8.42,-9.72,1.27,0.11,-8.34,-102392.13,-157732.32,0
56332,0,56,332,20.66,28.9,0,0,400,14978,18908,348.19,-82.5,-85.31,0.17,-0.01,0,0.16,-0.03,-0.13,-0.21,-0.37,38,12.25,30.25,80.5,-9.75,1.14,-0.11,-8.72,-9.72,1.27,0.1,-8.35,-102911.07,-159981.06,-0.01
56522,0,56,522,20.66,28.93,0,0,400,14971,18905,348.25,-82.5,-85.5,-0.12,0.01,-0.01,-0.12,0,-0.08,-0.04,-0.12,39.5,13,30,82.5,-9.77,1.12,0.18,-8.47,-9.72,1.26,0.1,-8.36,-102911.07,-161425.06,0
56706,0,56,706,20.68,28.89,0,0,400,14981,18919,348.56,-82.5,-86.25,0.2,-0.01,-0,0.19,-0.01,-0.14,0.06,-0.09,38.75,13,29.56,81.31,-9.73,1.12,0.15,-8.46,-9.72,1.27,0.08,-8.37,-103080.35,-163794.98,-0
56895,0,56,895,20.66,28.9,0,0,400,14982,18916,348.5,-82.5,-86.44,-0.16,-0,-0,-0.16,-0.01,-0.07,-0.23,-0.31,37.69,13.38,30.69,81.76,-9.74,1.19,-0.15,-8.7,-9.72,1.27,0.07,-8.38,-103258.96,-165045.21,-0
57079,0,57,79,20.68,28.88,0,0,400,14973,18914,347.56,-82.44,-85.5,-0.03,0.01,-0,-0.02,0.01,-0.1,0.36,0.27,38.75,13,30,81.75,-9.7,1.17,0.46,-8.07,-9.72,1.27,0.09,-8.36,-103091.51,-166719.66,0
57271,0,57,271,20.66,28.86,0,0,400,14983,18923,348.12,-82.44,-86.06,0.07,0,-0.01,0.06,0.07,-0.22,-0.1,-0.25,37.69,13.25,29.88,80.82,-9.64,1.04,-0.01,-8.61,-9.72,1.27,0.08,-8.37,-101801.27,-170774.7,0.01
57456,0,57,456,20.69,28.87,0,0,400,14988,18926,348.44,-82.44,-86,0,-0.02,0.02,0,-0.01,-0.08,0.21,0.12,38.38,12.88,30.19,81.45,-9.74,1.19,0.3,-8.25,-9.72,1.27,0.08,-8.37,-101972.4,-172143.7,-0
57648,0,57,648,20.66,28.84,0,0,400,14983,18917,349.44,-82.25,-86.25,0.21,0.02,-0.01,0.22,0.06,-0.09,0.52,0.49,39.5,13.25,30.5,83.25,-9.64,1.21,0.6,-7.83,-9.71,1.31,0.08,-8.32,-100866.48,-173802.58,0.01
57839,0,57,839,20.65,28.84,0,0,400,14983,18928,349.62,-82.81,-88.88,-0.44,0.06,-0.09,-0.47,0.03,-0.21,-0.61,-0.79,39.75,13.69,28.88,82.32,-9.69,1,-0.58,-9.27,-9.73,1.22,0.02,-8.49,-100319.26,-177633.09,0.01
58025,0,58,25,20.68,28.83,0,0,400,14990,18937,348.06,-82.69,-85.44,-0.17,-0.05,0.11,-0.11,-0.06,-0.38,0.13,-0.31,38.56,13.19,30.88,82.63,-9.83,0.74,0.47,-8.62,-9.72,1.25,0.1,-8.37,-101357.14,-184206.33,-0.01
58216,0,58,216,20.68,28.8,0,0,400,14984,18918,347.06,-82,-83.69,0.03,0.03,-0.02,0.04,-0.12,1.45,-0.79,0.54,38.56,12.19,29.38,80.13,-9.69,2.89,-0.64,-7.44,-9.71,1.34,0.14,-8.23,-103546,-157757.6,-0.02
58399,0,58,399,20.69,28.84,0,0,400,14988,18935,347.56,-82.38,-85.31,-0.09,0.02,-0.01,-0.08,0,-0.71,-0.38,-1.09,39.25,12.75,30.06,82.06,-9.71,0.57,-0.28,-9.42,-9.72,1.29,0.1,-8.33,-103546,-169646.19,0
58590,0,58,590,20.66,28.79,0,0,400,14990,18923,347.06,-82.12,-83.69,0.04,-0.01,0.04,0.07,0.02,0.23,0.6,0.85,39.69,12.5,29.69,81.88,-9.68,1.56,0.75,-7.37,-9.71,1.32,0.14,-8.25,-103181.19,-165450.88,0
58777,0,58,777,20.65,28.82,0,0,400,14983,18925,347.12,-82.12,-84.38,-0.14,-0.01,-0.01,-0.16,0.04,-0.39,0.22,-0.13,39,12.75,29.75,81.5,-9.82,0.94,0.44,-8.44,-9.71,1.32,0.13,-8.26,-102481.81,-172269.83,0.01
58967,0,58,967,20.68,28.82,0,0,400,14986,18922,347.12,-82.12,-84.31,0.04,-0,-0.01,0.03,0.02,0.23,0.03,0.28,37.88,12.5,29.69,80.07,-9.69,1.57,0.17,-7.95,-9.71,1.33,0.13,-8.25,-102120.81,-168118.33,0
59157,0,59,157,20.66,28.83,0,0,400,14987,18935,347.5,-82.12,-84.75,-0.09,0.02,-0.04,-0.11,0.01,0.13,-0.17,-0.03,39.25,12.5,30.06,81.81,-9.74,1.04,0.03,-8.67,-9.71,1.32,0.12,-8.27,-101940.31,-165771.83,0
59343,0,59,343,20.68,28.77,0,0,400,14987,18928,347.06,-82.25,-83.19,-0.12,0.02,0.04,-0.06,0.06,-0.11,0.18,0.13,39,13.69,30.19,82.88,-9.65,1.18,0.34,-8.13,-9.71,1.3,0.15,-8.26,-100902.43,-167674.61,0.01
59535,0,59,535,20.66,28.76,0,0,400,14985,18927,346.25,-81.94,-83.56,0.04,-0,0.01,0.05,-0.13,1.48,-1.19,0.16,40,13.38,29.75,83.13,-9.85,2.84,-1.04,-8.05,-9.71,1.35,0.15,-8.21,-103298.59,-140395.25,-0.03
59722,0,59,722,20.65,28.79,0,0,400,14994,18938,346.38,-81.94,-84,0.13,-0,0.04,0.17,0.19,0.6,-0.03,0.76,39.25,12.25,29.69,81.19,-9.51,1.96,0.1,-7.45,-9.71,1.36,0.14,-8.21,-99976.54,-129904.55,0.04
59911,0,59,911,20.66,28.79,0,0,400,14986,18931,346.12,-82,-83.56,0.06,-0.03,0.03,0.06,-0.02,0.03,0.21,0.22,39.69,13,30.06,82.75,-9.73,1.38,0.36,-7.99,-9.71,1.35,0.15,-8.21,-100333.75,-129368.74,-0
60096,1,0,96,20.69,28.8,0,0,400,14992,18938,346.12,-81.94,-83.44,-0.03,0.01,-0.03,-0.05,-0.02,-0.12,-0.21,-0.35,39.69,12.69,29.69,82.07,-9.73,1.24,-0.06,-8.55,-9.7,1.36,0.15,-8.19,-100676,-131422.24,-0
60289,1,0,289,20.65,28.82,0,0,400,14992,18936,346.62,-82,-83.12,0.26,-0.04,0.02,0.24,-0.01,0.45,0.58,1.02,39.25,12.25,30.19,81.69,-9.51,1.9,1.17,-6.44,-9.71,1.35,0.16,-8.2,-100862.24,-123041.21,-0
60482,1,0,482,20.68,28.83,0,0,400,15003,18945,347.56,-82.19,-85.75,0.13,0.01,-0,0.14,0.13,0.34,-0.11,0.36,39,13,28.88,80.88,-9.68,1.58,0.06,-8.04,-9.71,1.32,0.09,-8.3,-98441.06,-116708.88,0.03
60667,1,0,667,20.65,28.87,0,0,400,14990,18936,347.94,-82.44,-86.12,-0.04,0.01,-0.03,-0.06,0.1,0.24,-0.13,0.21,39,14,29.69,82.69,-9.62,1.53,-0.04,-8.13,-9.72,1.28,0.08,-8.36,-96729.81,-112601.88,0.02
60857,1,0,857,20.65,28.83,0,0,400,15000,18945,348,-82.62,-85.88,-0.16,0.01,-0.02,-0.17,-0.04,-0.51,0.21,-0.34,39,13.38,29.38,81.76,-9.77,0.73,0.3,-8.74,-9.72,1.24,0.09,-8.39,-97451.81,-121807.38,-0.01
61042,1,1,42,20.68,28.8,0,0,400,14997,18953,348.06,-82.56,-85.81,-0.01,-0,0.01,0,0,0.12,-0.01,0.11,39,13.75,29.25,82,-9.67,1.39,0.1,-8.18,-9.72,1.26,0.09,-8.37,-97451.81,-119753.88,0
61235,1,1,235,20.66,28.86,0,0,400,14996,18959,348.06,-82.56,-85.56,0,-0.04,0,-0.04,-0.05,-0.08,0.03,-0.1,39.69,14.06,29.5,83.25,-9.73,1.14,0.44,-8.15,-9.72,1.25,0.1,-8.37,-98383.03,-121243.84,-0.01
61419,1,1,419,20.69,28.77,0,0,400,14997,18950,347.88,-82.5,-83.88,-0.04,0.01,-0.01,-0.04,-0.03,-0.19,-0.07,-0.29,38.56,14.75,29.5,82.81,-9.75,1.07,0.06,-8.62,-9.72,1.26,0.13,-8.33,-98890.87,-124460.16,-0.01
61608,1,1,608,20.66,28.8,0,0,400,15000,18950,347.44,-82.5,-83.56,0.04,0,0.02,0.06,-0.01,-0.01,0.02,0,39.25,14.06,29.19,82.5,-9.73,1.24,0.16,-8.33,-9.72,1.26,0.14,-8.32,-99069.48,-124638.77,-0
61793,1,1,793,20.68,28.78,0,0,400,15001,18950,347.06,-82.31,-83.69,0,0.01,0.01,0.02,-0.01,0.18,-0.11,0.06,39.69,13.25,28.75,81.69,-9.72,1.5,0.04,-8.18,-9.71,1.3,0.14,-8.27,-99240.6,-121558.52,-0
61986,1,1,986,20.68,28.83,0,0,400,14994,18955,347.12,-82.25,-83.56,0.01,0.02,-0,0.03,-0.02,0.04,0.1,0.12,39.69,12.56,29.19,81.44,-9.74,1.35,0.25,-8.14,-9.71,1.31,0.14,-8.26,-99613.09,-120813.54,-0
62176,1,2,176,20.66,28.8,0,0,400,14998,18952,347.31,-82.38,-86,0.01,0,-0.03,-0.02,-0.15,-0.11,-0.12,-0.38,39,13.69,29.5,82.19,-9.66,1.43,-0.39,-8.62,-9.72,1.29,0.08,-8.35,-102320.59,-122799.04,-0.03
62364,1,2,364,20.66,28.89,0,0,400,14997,18951,347.62,-82.62,-85.69,-0.02,-0.03,-0.01,-0.06,0,-0.09,0.17,0.08,40,12.88,29.5,82.38,-9.73,1.15,0.27,-8.31,-9.72,1.24,0.09,-8.39,-102320.59,-124389.52,0
62556,1,2,556,20.69,28.84,0,0,400,14998,18953,347.56,-82.62,-84.44,0.01,0.01,0.01,0.03,0,0.06,-0.01,0.05,40.19,14.88,32.88,87.95,-9.71,1.3,0.08,-8.33,-9.72,1.25,0.12,-8.35,-102320.59,-123283.6,0
62743,1,2,743,20.66,28.8,0,0,400,14999,18956,347.38,-82.5,-85.19,0.04,0.01,-0.01,0.04,0.02,0.13,-0.28,-0.13,39.38,14.75,32.38,86.51,-9.69,1.4,-0.18,-8.47,-9.72,1.27,0.1,-8.35,-101970.9,-121010.61,0
62934,1,2,934,20.68,28.84,0,0,400,15008,18957,347.31,-82.5,-84.94,0.01,0,-0,0.01,0.08,0.07,0.03,0.18,39.38,14.75,31.69,85.82,-9.63,1.34,0.14,-8.15,-9.72,1.27,0.11,-8.34,-100511.66,-119733.78,0.02
63120,1,3,120,20.65,28.86,0,0,400,15003,18959,347.19,-82.5,-84.81,-0.05,0,-0,-0.05,0.01,-0.31,0.07,-0.23,40.38,15.5,31.69,87.57,-9.7,0.94,0.18,-8.58,-9.72,1.26,0.11,-8.35,-100338.68,-125096.16,0
63311,1,3,311,20.65,28.82,0,0,400,15005,18961,347.06,-82.44,-84.75,-0.01,0,0.01,0,0.02,0.17,0.08,0.27,39.69,14.75,32.06,86.5,-9.69,1.45,0.2,-8.04,-9.72,1.28,0.11,-8.33,-99973.87,-121995.27,0
63501,1,3,501,20.65,28.83,0,0,400,15010,18968,347.06,-82.38,-85,-0.03,-0,-0.01,-0.04,0,-0.08,-0.04,-0.12,39.69,14.25,32.06,86,-9.72,1.2,0.06,-8.46,-9.72,1.28,0.11,-8.33,-99973.87,-123439.27,0
63686,1,3,686,20.65,28.77,0,0,400,15001,18956,347,-82.44,-84.5,-0.01,0.01,0.01,0.01,0,-0.09,0,-0.09,39.69,14.69,32.38,86.76,-9.73,1.18,0.11,-8.44,-9.72,1.28,0.12,-8.32,-99973.87,-124979.4,0
63877,1,3,877,20.66,28.8,0,0,400,15014,18967,346.88,-82.31,-84.81,0.03,-0.01,-0.01,0.01,0,0.13,-0.04,0.09,39,14,31.69,84.69,-9.72,1.43,0.07,-8.22,-9.71,1.3,0.11,-8.3,-99973.87,-122608.13,0
64060,1,4,60,20.68,28.8,0,0,400,15004,18959,347.19,-82.44,-84.75,0.02,0,-0.02,0,0.01,-0.08,0,-0.07,39.69,14.38,31.69,85.76,-9.75,1.21,0.12,-8.42,-9.72,1.27,0.11,-8.34,-99806.43,-123947.69,0
64253,1,4,253,20.65,28.79,0,0,400,15012,18967,347.25,-82.62,-84.88,-0.03,-0.01,0.01,-0.03,0,-0.13,0.06,-0.07,39.75,15.06,32.5,87.31,-9.72,1.11,0.17,-8.44,-9.72,1.24,0.11,-8.37,-99806.43,-126368.88,0
64438,1,4,438,20.65,28.74,0,0,400,15008,18961,346.94,-82.44,-84.62,0.01,0.01,0.01,0.03,0.02,0.16,-0.03,0.15,38.56,15,32.75,86.31,-9.69,1.44,0.08,-8.17,-9.72,1.27,0.11,-8.34,-99464.18,-123630.88,0
64628,1,4,628,20.63,28.82,0,0,400,15010,18971,346.94,-82.44,-84.69,-0.01,0.01,-0.01,-0.01,0.01,-0.07,0.05,-0.01,40.06,15,32.06,87.12,-9.7,1.2,0.17,-8.33,-9.72,1.28,0.11,-8.33,-99283.68,-124894.38,0
64812,1,4,812,20.66,28.76,0,0,400,15011,18970,346.94,-82.5,-85.06,-0.01,-0.02,0.01,-0.02,0.03,-0.08,-0.09,-0.14,39.69,14.69,33.19,87.57,-9.69,1.18,0,-8.51,-9.72,1.27,0.11,-8.34,-98775.84,-126248.62,0.01
65004,1,5,4,20.65,28.77,0,0,400,15011,18964,346.94,-82.38,-84.75,0.07,0,0,0.07,0.04,0.26,-0.16,0.14,40.06,14.25,32.06,86.37,-9.69,1.45,0.09,-8.15,-9.72,1.28,0.11,-8.33,-98038.56,-121456.3,0.01
65196,1,5,196,20.65,28.79,0,0,400,15011,18957,346.88,-82.44,-84.5,-0.04,0.01,0,-0.03,0.02,0.05,0.18,0.25,39,14.38,30.88,84.26,-9.71,1.28,0.11,-8.32,-9.72,1.28,0.12,-8.32,-97669.92,-120534.7,0
65381,1,5,381,20.65,28.77,0,0,400,15017,18972,346.81,-82.44,-85,0,0,-0.02,-0.02,-0.01,-0.04,0.01,-0.04,39.38,14.69,31.69,85.76,-9.73,1.23,0.12,-8.38,-9.72,1.28,0.11,-8.33,-97841.04,-121219.2,-0
65570,1,5,570,20.65,28.79,0,0,400,15016,18977,346.88,-82.5,-84.88,-0.01,-0,0,-0.01,0.02,-0.21,0.26,0.07,40.06,14.25,30.19,84.5,-9.69,1.04,0.37,-8.28,-9.72,1.26,0.11,-8.35,-97483.83,-124969.9,0
65754,1,5,754,20.65,28.77,0,0,400,15019,18975,346.94,-82.56,-85,0.01,0,0,0.01,0.05,-0.16,0.05,-0.06,39.38,14.75,33.19,87.32,-9.67,1.09,0.16,-8.42,-9.72,1.25,0.1,-8.37,-96637.43,-127678.38,0.01
65947,1,5,947,20.65,28.83,0,0,400,15011,18966,347,-82.5,-85.88,0.03,0.01,0.01,0.05,0,0.23,-0.59,-0.36,39.5,14.75,31.69,85.94,-9.71,1.49,-0.5,-8.72,-9.72,1.26,0.09,-8.37,-96637.43,-123394.75,0
66131,1,6,131,20.68,28.76,0,0,400,15014,18975,346.88,-82.5,-85.38,0.05,-0,-0,0.05,-0.04,-0.07,0.06,-0.05,39.88,14.38,32.06,86.32,-9.76,1.19,0.16,-8.41,-9.72,1.26,0.1,-8.36,-97314.55,-124579.71,-0.01
66321,1,6,321,20.65,28.76,0,0,400,15019,18976,346.88,-82.5,-85.62,0.03,0.01,-0,0.04,0,0.07,-0.12,-0.05,39.5,14.38,31.69,85.57,-9.72,1.34,-0.03,-8.41,-9.72,1.27,0.09,-8.36,-97314.55,-123316.21,0
66506,1,6,506,20.66,28.76,0,0,400,15022,18972,346.75,-82.5,-85.81,-0.03,-0.01,0,-0.04,0.05,0.11,0.27,0.43,39.75,14.75,32.88,87.38,-9.66,1.38,0.36,-7.92,-9.72,1.26,0.09,-8.37,-96458.93,-121433.83,0.01
66698,1,6,698,20.68,28.77,0,0,400,15026,18982,346.56,-82.5,-85.25,-0,0.01,0.01,0.02,0.01,0.09,0.81,0.91,40.19,15.06,31.25,86.5,-9.72,1.3,0.89,-7.53,-9.72,1.26,0.1,-8.36,-96274.61,-119774.95,0
66891,1,6,891,20.66,28.76,0,0,400,15017,18985,346.62,-82.5,-86.56,0.06,0.01,0,0.07,-0.07,0.17,-0.46,-0.36,39.75,15,32.5,87.25,-9.79,1.19,0,-8.6,-9.72,1.27,0.07,-8.38,-97578.32,-116608.79,-0.01
67078,1,7,78,20.68,28.74,0,0,400,15021,18973,346.56,-82.5,-86.5,0.03,0.01,0.01,0.05,0.06,-0.05,0.2,0.21,38.56,15,32.38,85.94,-9.65,1.22,0.28,-8.15,-9.72,1.27,0.07,-8.38,-96529.25,-117483.01,0.01
67270,1,7,270,20.66,28.73,0,0,400,15026,18991,346.62,-82.5,-86,0.03,-0.01,0,0.02,0.01,0.09,0.22,0.32,39.38,15.38,32.25,87.01,-9.74,1.3,0.5,-7.94,-9.72,1.27,0.08,-8.37,-96344.93,-115824.13,0
67457,1,7,457,20.65,28.74,0,0,400,15024,18985,346.94,-82.56,-86,0.03,0.02,-0.01,0.04,0.05,0.07,-0.33,-0.21,40.06,14.69,31.56,86.31,-9.67,1.34,-0.24,-8.57,-9.72,1.26,0.08,-8.38,-95470.71,-114600.22,0.01
67650,1,7,650,20.63,28.68,0,0,400,15020,18984,346.81,-82.56,-85,0.01,-0.03,0,-0.02,0.04,-0.23,0.35,0.16,39.75,15,31.56,86.31,-9.68,1.01,0.46,-8.21,-9.72,1.25,0.1,-8.37,-94725.73,-118883.85,0.01
67833,1,7,833,20.65,28.72,0,0,400,15021,18985,346.5,-82.5,-83.81,0.03,-0.01,-0.01,0.01,0.05,0.13,0.22,0.4,39.69,14.69,32.25,86.63,-9.66,1.4,0.35,-7.91,-9.72,1.26,0.13,-8.33,-93888.5,-116707.07,0.01
68024,1,8,24,20.66,28.77,0,0,400,15030,18990,346.75,-82.62,-83.81,0.02,-0.03,0.01,1.73472347597681e-18,0.04,-0.21,0.27,0.1,39.38,15.38,32,86.76,-9.67,1.02,0.4,-8.25,-9.72,1.24,0.13,-8.35,-93158.88,-120537.57,0.01
68209,1,8,209,20.66,28.76,0,0,400,15026,18991,346.5,-82.5,-84.19,-0.03,0.02,0.02,0.01,0,0.08,0.05,0.13,39,15,32.75,86.75,-9.72,1.35,0.18,-8.19,-9.72,1.27,0.12,-8.33,-93158.88,-119168.57,0
68401,1,8,401,20.66,28.67,0,0,400,15025,18992,346.25,-82.38,-85.31,-0.05,0.01,0,-0.04,-0.02,0.02,0.02,0.02,40.06,14.25,32,86.31,-9.74,1.31,0.12,-8.31,-9.72,1.29,0.1,-8.33,-93527.52,-118799.93,-0
68590,1,8,590,20.65,28.73,0,0,400,15024,18982,346.19,-82.31,-85.69,0.04,-0,-0.02,0.02,0,0.08,-0.58,-0.5,39.38,15,32.38,86.76,-9.71,1.38,-0.48,-8.81,-9.71,1.29,0.09,-8.33,-93527.52,-117371.09,0
68773,1,8,773,20.66,28.73,0,0,400,15021,18985,346.25,-82.5,-84.44,0.02,-0.01,0.01,0.02,0,-0.18,0.12,-0.06,39.38,14.69,32.25,86.32,-9.76,1.2,0.39,-8.17,-9.72,1.27,0.12,-8.33,-93527.52,-120385.1,0
68965,1,8,965,20.65,28.7,0,0,400,15025,18985,346.31,-82.44,-84.31,0.02,0,-0.01,0.01,0,-0.13,-0.11,-0.24,40.06,14.25,31.5,85.81,-9.7,1.22,-0.09,-8.57,-9.72,1.28,0.12,-8.32,-93527.52,-122781.26,0
69152,1,9,152,20.62,28.78,0,0,400,15026,18988,346.38,-82.44,-84.12,0.01,0.01,-0.01,0.01,-0.01,-0.17,0.16,-0.02,39,15.38,32.25,86.63,-9.73,1.1,0.29,-8.34,-9.72,1.27,0.13,-8.32,-93702.37,-125753.63,-0
69342,1,9,342,20.63,28.72,0,0,400,15024,18983,346.5,-82.5,-85,-0.04,0.01,0,-0.03,-0.02,-0.16,-0.2,-0.38,40.06,14.69,31.5,86.25,-9.74,1.1,-0.09,-8.73,-9.72,1.26,0.1,-8.36,-94063.37,-128641.63,-0
69525,1,9,525,20.65,28.74,0,0,400,15026,18987,346.31,-82.44,-84.69,0.02,0.02,-0.01,0.03,0.04,0,0.22,0.26,39.38,15.38,32.25,87.01,-9.67,1.27,0.33,-8.07,-9.72,1.27,0.11,-8.34,-93393.59,-128641.63,0.01
69717,1,9,717,20.65,28.7,0,0,400,15033,19004,346.31,-82.5,-86.06,-0.05,-0.01,0,-0.06,0.02,0.13,-0.18,-0.03,40.06,16.06,31.88,88,-9.71,1.43,-0.21,-8.49,-9.72,1.26,0.08,-8.38,-93024.95,-126245.47,0
69910,1,9,910,20.66,28.68,0,0,400,15036,19004,346.06,-82.5,-85.06,-0,-0.02,-0,-0.02,0.05,-0.09,0.11,0.07,39.75,14.69,31.88,86.32,-9.67,1.17,0.22,-8.28,-9.72,1.26,0.11,-8.35,-92093.72,-127921.67,0.01
70095,1,10,95,20.66,28.72,0,0,400,15040,19002,346,-82.5,-84.5,-0.08,0,-0,-0.08,0.06,-0.03,0.43,0.46,39.38,15.38,32.25,87.01,-9.66,1.23,0.56,-7.87,-9.72,1.26,0.12,-8.34,-91066.98,-128435.05,0.01
70284,1,10,284,20.65,28.63,0,0,400,15024,19001,345.75,-82.56,-85.75,-0.06,0.03,0.01,-0.02,-0.04,-0.09,-0.24,-0.37,40.06,15.38,32.25,87.69,-9.76,1.17,-0.15,-8.74,-9.72,1.26,0.09,-8.37,-91781.39,-130042.49,-0.01
70469,1,10,469,20.65,28.7,0,0,400,15033,18997,345.69,-82.5,-86.12,-0.01,0,-0.01,-0.02,-0.02,0,0,-0.02,39.38,14.88,32.25,86.51,-9.77,1.23,0.12,-8.42,-9.72,1.27,0.08,-8.37,-92123.64,-130042.49,-0
70675,1,10,675,20.66,28.68,0,0,400,15032,18996,345.94,-82.56,-86.88,0,0.01,0,0.01,0.05,-0.16,0.2,0.09,39,14.56,31.88,85.44,-9.67,1.1,0.27,-8.3,-9.72,1.26,0.06,-8.4,-91062.74,-133437.37,0.01
70859,1,10,859,20.65,28.7,0,0,400,15038,19006,346.12,-82.56,-87.94,-0.13,-0.1,0,-0.23,-0.05,0.09,-0.91,-0.87,38.88,14.25,32.69,85.82,-9.78,1.34,-0.86,-9.3,-9.72,1.25,0.04,-8.43,-91909.14,-131913.85,-0.01
71049,1,11,49,20.65,28.68,0,0,400,15027,19003,345.81,-82.5,-82.5,0.08,0.03,0.02,0.13,-0.04,0.26,0.1,0.32,38.88,15.25,31.19,85.32,-9.76,1.53,0.27,-7.96,-9.72,1.26,0.16,-8.3,-92631.14,-127220.85,-0.01
71232,1,11,232,20.66,28.68,0,0,400,15029,19004,345.81,-82.5,-85.5,0.05,0.02,0.02,0.09,0.09,0.3,-0.11,0.28,39.75,14.56,31.56,85.87,-9.73,1.71,-0.09,-8.11,-9.72,1.27,0.09,-8.36,-91124.14,-122197.5,0.02
71424,1,11,424,20.63,28.66,0,0,400,15032,19008,345.81,-82.56,-86.38,0.03,-0.02,-0.02,-0.01,0,-0.27,0.1,-0.17,39.75,14.19,31.25,85.19,-9.71,0.99,0.18,-8.54,-9.72,1.26,0.08,-8.38,-91124.14,-127174.14,0
71618,1,11,618,20.65,28.68,0,0,400,15033,19006,345.88,-82.56,-85.94,-0.03,-0.01,-0,-0.04,0.06,-0.21,0.3,0.15,39.38,14.88,31.25,85.51,-9.66,1.05,0.39,-8.22,-9.72,1.26,0.08,-8.38,-89995.06,-131125.92,0.01
71804,1,11,804,20.63,28.67,0,0,400,15038,19009,345.62,-82.5,-85.81,0,-0,0,0,0.01,-0.05,0.22,0.18,40.38,14.88,31.56,86.82,-9.73,1.22,0.35,-8.16,-9.72,1.26,0.09,-8.37,-89822.08,-131990.82,0
71996,1,11,996,20.65,28.67,0,0,400,15042,19016,345.38,-82.44,-85.75,-0.07,0.01,0.02,-0.04,0.01,-0.14,-0.05,-0.18,40.06,14.56,31.19,85.81,-9.7,1.13,0.04,-8.53,-9.72,1.27,0.09,-8.36,-89637.76,-134571.3,0
72181,1,12,181,20.65,28.66,0,0,400,15030,19009,345.06,-82.31,-84.38,-0.1,-0.03,-0.02,-0.15,0.02,0.26,0.67,0.95,40.38,14.25,31.5,86.13,-9.69,1.56,0.8,-7.33,-9.71,1.29,0.12,-8.3,-89295.51,-130122.05,0
72373,1,12,373,20.66,28.68,0,0,400,15039,19010,345.38,-82.38,-86.44,0.08,0.02,0.02,0.12,0.04,0.08,0,0.12,40,14.69,33,87.69,-9.72,1.57,-0.04,-8.19,-9.71,1.29,0.07,-8.35,-88558.23,-128647.49,0.01
72561,1,12,561,20.63,28.64,0,0,400,15044,19022,345.38,-82.38,-87.25,-0.07,0.02,-0.02,-0.07,-0.03,0.15,0.23,0.35,40,14.69,31.88,86.57,-9.75,1.45,0.29,-8.01,-9.72,1.29,0.06,-8.37,-89088.39,-125996.69,-0.01
72750,1,12,750,20.63,28.72,0,0,400,15039,19014,345.81,-82.62,-88.44,-0.05,-0.03,-0.02,-0.1,-0.01,-0.49,-0.33,-0.83,39.38,14.69,33,87.07,-9.74,0.75,-0.3,-9.29,-9.72,1.24,0.03,-8.45,-89266.99,-134748.34,-0
72940,1,12,940,20.65,28.61,0,0,400,15043,19013,345.56,-82.56,-86.12,-0.01,0.02,0.01,0.02,-0.04,0.01,-0.25,-0.28,39.38,14.69,31.5,85.57,-9.76,1.27,-0.16,-8.65,-9.72,1.26,0.08,-8.38,-89988.99,-134567.84,-0.01
73124,1,13,124,20.68,28.66,0,0,400,15048,19020,345.31,-82.56,-86.06,0.06,-0.01,0.03,0.08,0,0,0.01,0.01,40.06,15,32.69,87.75,-9.72,1.27,0.1,-8.35,-9.72,1.26,0.08,-8.38,-89988.99,-134567.84,0
73313,1,13,313,20.65,28.68,0,0,400,15043,19010,345.25,-82.44,-86.5,0.04,0,-0,0.04,0,0.12,-0.13,-0.01,40.38,15,32.56,87.94,-9.71,1.41,-0.05,-8.35,-9.72,1.28,0.07,-8.37,-89988.99,-132424.58,0
73497,1,13,497,20.63,28.68,0,0,400,15044,19019,345.19,-82.44,-86.44,-0.02,0.01,-0.01,-0.02,0.01,-0.15,0,-0.14,40.38,14.69,31.75,86.82,-9.71,1.13,0.15,-8.43,-9.72,1.28,0.07,-8.37,-89819.71,-134963.78,0
73689,1,13,689,20.65,28.66,0,0,400,15036,19013,345.06,-82.38,-86.19,0.01,0.02,0.02,0.05,0.03,0.05,0,0.08,40.06,14.25,32.19,86.5,-9.69,1.35,0.06,-8.28,-9.72,1.28,0.08,-8.36,-89266.75,-134042.18,0.01
73875,1,13,875,20.63,28.67,0,0,400,15043,19022,344.81,-82.38,-86.5,-0.04,-0.02,0.01,-0.05,0.01,0.07,0.17,0.25,40.06,14.25,31.88,86.19,-9.7,1.37,0.24,-8.09,-9.72,1.29,0.07,-8.36,-89093.77,-132831.32,0
74066,1,14,66,20.65,28.66,0,0,400,15043,19018,344.88,-82.31,-86.06,-0.02,0.01,-0,-0.01,0.02,0,0.04,0.06,39,14.69,31.38,85.07,-9.69,1.3,0.13,-8.26,-9.71,1.29,0.08,-8.34,-88728.96,-132831.32,0
74250,1,14,250,20.65,28.66,0,0,400,15041,19012,344.81,-82.38,-86.44,0.01,0.01,-0.01,0.01,0.01,-0.15,-0.02,-0.16,38.56,14.25,31.38,84.19,-9.71,1.01,0.13,-8.57,-9.72,1.29,0.07,-8.36,-88559.68,-135370.52,0
74441,1,14,441,20.62,28.68,0,0,400,15047,19018,344.88,-82.38,-86.56,0.07,-0.01,0.01,0.07,-0.02,-0.03,0.04,-0.01,39.38,14.69,31.06,85.13,-9.74,1.25,0.12,-8.37,-9.72,1.29,0.07,-8.36,-88924.49,-135917.73,-0
74633,1,14,633,20.63,28.66,0,0,400,15040,19018,345.06,-82.38,-86.56,-0.03,-0.01,0.01,-0.03,-0.03,-0.04,0.1,0.03,40.75,14.25,32.25,87.25,-9.75,1.25,0.18,-8.32,-9.71,1.29,0.07,-8.35,-89477.45,-136655.01,-0.01
74818,1,14,818,20.65,28.67,0,0,400,15045,19030,344.69,-82.31,-86.25,0.03,0,-0,0.03,-0.01,0.02,0.1,0.11,38.56,16.06,31.06,85.68,-9.73,1.32,0.18,-8.23,-9.71,1.3,0.08,-8.33,-89648.58,-136312.76,-0
75007,1,15,7,20.62,28.64,0,0,400,15043,19012,344.62,-82.38,-85.38,-0.06,-0.01,-0.03,-0.1,-0.01,-0.1,0.13,0.02,39.75,14.69,32.88,87.32,-9.73,1.19,0.23,-8.31,-9.72,1.29,0.1,-8.33,-89827.18,-138098.81,-0
75191,1,15,191,20.63,28.68,0,0,400,15049,19027,344.75,-82.44,-84.56,0.01,0,0,0.01,-0.02,-0.06,0.02,-0.06,38.56,14.19,31.5,84.25,-9.7,1.18,0.22,-8.3,-9.72,1.27,0.12,-8.33,-90165.74,-139114.49,-0
75384,1,15,384,20.62,28.64,0,0,400,15052,19032,344.62,-82.38,-84.62,-0.03,0.01,0.02,3.46944695195361e-18,0.02,0.15,-0.01,0.16,38.56,14.19,32.25,85,-9.69,1.45,0.1,-8.14,-9.72,1.29,0.12,-8.31,-89793.25,-136320.82,0
75570,1,15,570,20.63,28.66,0,0,400,15046,19024,344.44,-82.31,-84.75,0.01,-0.01,0,0,-0.01,-0.02,0,-0.03,40.06,14.19,31.06,85.31,-9.73,1.27,0.11,-8.35,-9.71,1.3,0.11,-8.3,-89966.23,-136666.78,-0
75760,1,15,760,20.63,28.64,0,0,400,15050,19027,344.44,-82.31,-84.56,-0.03,0.01,-0,-0.02,-0.02,-0.01,-0.05,-0.08,39.75,14.56,31.75,86.06,-9.74,1.28,0.06,-8.4,-9.71,1.3,0.12,-8.29,-90327.23,-136847.28,-0
75948,1,15,948,20.65,28.67,0,0,400,15051,19026,344.25,-82.25,-84.25,0.04,0,-0,0.04,0.01,0.04,0.05,0.1,39.75,14.56,31.38,85.69,-9.7,1.34,0.18,-8.18,-9.71,1.3,0.12,-8.29,-90150.51,-136140.4,0
76133,1,16,133,20.63,28.68,0,0,400,15056,19041,344.5,-82.38,-84.31,-0.15,0.01,-0.03,-0.17,-0.06,-0.26,0.18,-0.14,40.06,14.88,31.75,86.69,-9.78,1.02,0.31,-8.45,-9.72,1.29,0.12,-8.31,-91177.26,-140589.65,-0.01
76328,1,16,328,20.63,28.61,0,0,400,15051,19033,344.81,-82.5,-84.88,-0,0.02,-0.03,-0.01,0,-0.02,0.08,0.06,39.38,14.56,31.06,85,-9.74,1.16,0.17,-8.41,-9.72,1.26,0.11,-8.35,-91177.26,-140969.9,0
76512,1,16,512,20.63,28.64,0,0,400,15049,19038,344.81,-82.62,-86.25,0.01,-0.01,0.01,0.01,0,0,-0.17,-0.17,40.06,14.88,32.88,87.82,-9.72,1.24,-0.09,-8.57,-9.72,1.24,0.08,-8.4,-91177.26,-140969.9,0
76702,1,16,702,20.63,28.63,0,0,400,15053,19031,344.62,-82.56,-85.44,-0.04,-0.02,0,-0.06,0.03,0.21,0.09,0.33,40.38,14.88,31.06,86.32,-9.69,1.47,0.2,-8.02,-9.72,1.26,0.1,-8.36,-90635.76,-137179.4,0.01
76886,1,16,886,20.63,28.64,0,0,400,15051,19040,344.62,-82.56,-84.56,0,0.01,-0,0.01,-0.01,-0.09,-0.08,-0.18,39.38,13.75,30.69,83.82,-9.74,1.16,0.02,-8.56,-9.72,1.26,0.11,-8.35,-90805.04,-138702.92,-0
77079,1,17,79,20.63,28.64,0,0,400,15048,19035,344.62,-82.56,-84.69,0.02,0,0.01,0.03,-0.02,-0.02,-0.05,-0.09,40.38,14.56,31.06,86,-9.74,1.22,0.05,-8.47,-9.72,1.25,0.11,-8.36,-91177.53,-139075.41,-0
77265,1,17,265,20.63,28.63,0,0,400,15053,19042,344.5,-82.56,-84.38,0,0.01,-0.01,0,0.01,0.01,0,0.02,39.75,14.56,32.19,86.5,-9.71,1.27,0.11,-8.33,-9.72,1.26,0.12,-8.34,-91004.55,-138902.43,0
77454,1,17,454,20.6,28.63,0,0,400,15048,19037,344.5,-82.56,-84.44,0,0,0,0,0,-0.04,0.06,0.02,40.06,13.75,31.75,85.56,-9.71,1.21,0.19,-8.31,-9.72,1.25,0.12,-8.35,-91004.55,-139616.85,0
77644,1,17,644,20.63,28.6,0,0,400,15047,19032,344.44,-82.56,-84.25,-0.01,0,0,-0.01,0.01,0.07,0,0.08,39.38,14.56,32.19,86.13,-9.7,1.33,0.12,-8.25,-9.72,1.25,0.12,-8.35,-90824.05,-138353.35,0
77828,1,17,828,20.6,28.66,0,0,400,15055,19041,344.44,-82.56,-84.31,-0.01,-0,-0,-0.01,0,-0.14,0.09,-0.05,39.38,14.19,31.38,84.95,-9.72,1.11,0.22,-8.39,-9.72,1.25,0.12,-8.35,-90824.05,-140723.27,0
78021,1,18,21,20.63,28.61,0,0,400,15053,19050,344.44,-82.56,-84.25,-0.02,0,0.01,-0.01,0.01,0,0,0.01,40.06,14.19,31.38,85.63,-9.71,1.25,0.11,-8.35,-9.72,1.25,0.12,-8.35,-90637.81,-140723.27,0
78204,1,18,204,20.63,28.66,0,0,400,15057,19046,344.38,-82.56,-84.19,0.01,0,-0.01,0,-0.01,0.08,0,0.07,39.69,14.5,31.38,85.57,-9.74,1.34,0.13,-8.27,-9.72,1.25,0.12,-8.35,-90805.25,-139383.71,-0
78394,1,18,394,20.63,28.64,0,0,400,15057,19034,344.38,-82.56,-84.25,-0.01,0.01,-0,0,0,-0.07,-0.07,-0.14,38.5,14.06,31.38,83.94,-9.72,1.18,0.05,-8.49,-9.72,1.25,0.12,-8.35,-90805.25,-140647.21,0
78578,1,18,578,20.62,28.63,0,0,400,15053,19039,344.31,-82.56,-84.19,-0,0,0.01,0.01,0,0.04,-0.06,-0.02,38.88,14.75,31.75,85.38,-9.73,1.3,0.05,-8.38,-9.72,1.25,0.12,-8.35,-90805.25,-139970.09,0
78769,1,18,769,20.62,28.64,0,0,400,15050,19038,344.25,-82.56,-84.19,0,0.01,-0.01,0,0,-0.03,0.05,0.02,39.69,15.19,31.06,85.94,-9.72,1.22,0.18,-8.32,-9.72,1.25,0.12,-8.35,-90805.25,-140517.3,0
78958,1,18,958,20.63,28.7,0,0,400,15055,19047,344.31,-82.56,-84.31,-0.01,-0.01,0.01,-0.01,0.02,-0.01,-0.07,-0.06,38.88,14.75,31.75,85.38,-9.69,1.23,0.04,-8.42,-9.72,1.25,0.12,-8.35,-90448.04,-140695.91,0
79143,1,19,143,20.65,28.66,0,0,400,15061,19052,344.25,-82.56,-84.19,-0.01,0,0,-0.01,0.01,0.02,0.1,0.13,39.69,14.5,31.75,85.94,-9.71,1.28,0.19,-8.24,-9.72,1.25,0.12,-8.35,-90276.92,-140353.66,0
79335,1,19,335,20.63,28.67,0,0,400,15062,19054,344.25,-82.56,-84.25,-0.01,0.01,0,0,0,-0.07,-0.07,-0.14,40.25,14.5,31.75,86.5,-9.72,1.18,0.05,-8.49,-9.72,1.25,0.12,-8.35,-90276.92,-141643.9,0
79521,1,19,521,20.63,28.64,0,0,400,15057,19051,344.19,-82.56,-84.19,-0.01,-0,-0,-0.01,-0.01,0.01,0.01,0.01,38.5,14.75,31.06,84.31,-9.74,1.27,0.14,-8.33,-9.72,1.25,0.12,-8.35,-90449.9,-141470.92,-0
79710,1,19,710,20.63,28.6,0,0,400,15058,19044,344.19,-82.56,-84.19,0,0.01,-0,0.01,0,-0.01,-0.03,-0.04,40.25,14.5,31.06,85.81,-9.71,1.24,0.09,-8.38,-9.72,1.25,0.12,-8.35,-90449.9,-141649.52,0
79894,1,19,894,20.65,28.68,0,0,400,15050,19047,344.19,-82.56,-84.44,0,-0,-0,0,0,-0.04,-0.12,-0.16,39.25,14.5,32.56,86.31,-9.72,1.19,-0.04,-8.57,-9.72,1.25,0.12,-8.35,-90449.9,-142326.64,0
80087,1,20,87,20.62,28.6,0,0,400,15062,19055,344.12,-82.56,-84.19,-0.01,-0.01,0,-0.02,0,-0.1,0.06,-0.04,38.5,14.75,31.38,84.63,-9.73,1.18,0.19,-8.36,-9.72,1.25,0.12,-8.35,-90449.9,-144189.09,0
80273,1,20,273,20.65,28.64,0,0,400,15058,19053,344.12,-82.56,-84.19,-0,0.01,0,0.01,0,0.02,-0.01,0.01,39.25,14.75,31.75,85.75,-9.72,1.28,0.11,-8.33,-9.72,1.25,0.12,-8.35,-90449.9,-143843.13,0
80462,1,20,462,20.63,28.67,0,0,400,15065,19059,344.12,-82.56,-84.19,-0.01,0,0,-0.01,0,0,-0.02,-0.02,39.69,14.06,31.38,85.13,-9.72,1.24,0.1,-8.38,-9.72,1.25,0.12,-8.35,-90449.9,-143843.13,0
80652,1,20,652,20.63,28.67,0,0,400,15059,19051,344.12,-82.56,-84.19,-0.01,0,0,-0.01,0,0.04,-0.06,-0.02,38.88,14.5,31.38,84.76,-9.73,1.3,0.06,-8.37,-9.72,1.25,0.12,-8.35,-90449.9,-143121.13,0
80839,1,20,839,20.65,28.66,0,0,400,15059,19049,344.12,-82.56,-84.19,-0,0,0,0,0,-0.06,0.02,-0.04,38.88,15.19,31.06,85.13,-9.72,1.19,0.17,-8.36,-9.72,1.25,0.12,-8.35,-90449.9,-144170.2,0
81031,1,21,31,20.6,28.67,0,0,400,15068,19060,344.12,-82.56,-84.19,-0,-0,-0,-0,0,0.01,-0.06,-0.05,39.25,14.5,31.06,84.81,-9.72,1.26,0.06,-8.4,-9.72,1.25,0.12,-8.35,-90449.9,-143985.88,0
81216,1,21,216,20.65,28.68,0,0,400,15062,19049,344.12,-82.56,-84.19,-0,0,0,0,0,-0.08,0,-0.08,39.25,14.75,32.19,86.19,-9.72,1.17,0.12,-8.43,-9.72,1.25,0.12,-8.35,-90449.9,-145354.88,0
81405,1,21,405,20.63,28.67,0,0,400,15062,19044,344.12,-82.56,-84.19,0,0,0,0,0,0.04,-0.01,0.03,38.5,15.19,32.19,85.88,-9.72,1.3,0.1,-8.32,-9.72,1.25,0.12,-8.35,-90449.9,-144640.46,0
81589,1,21,589,20.62,28.72,0,0,400,15067,19069,344.12,-82.56,-84.19,0,0.01,0,0.01,0,-0.09,0.02,-0.07,39.25,15.19,31.75,86.19,-9.73,1.15,0.14,-8.44,-9.72,1.25,0.12,-8.35,-90449.9,-146163.98,0
81781,1,21,781,20.62,28.68,0,0,400,15075,19067,344.12,-82.56,-84.19,-0,0,0,0,-0.01,0.04,-0.01,0.02,40.25,14.5,32.19,86.94,-9.74,1.3,0.11,-8.33,-9.72,1.25,0.12,-8.35,-90634.22,-145426.7,-0
81973,1,21,973,20.62,28.72,0,0,400,15074,19068,344.12,-82.56,-84.12,-0.01,-0.01,0,-0.02,0,0,0.02,0.02,40,14.75,31.75,86.5,-9.71,1.25,0.14,-8.32,-9.72,1.25,0.12,-8.35,-90634.22,-145426.7,0
82158,1,22,158,20.62,28.7,0,0,400,15067,19061,344.12,-82.56,-84.12,0.01,-0,-0,0.01,0.01,0.02,-0.02,0.01,40.25,13.69,32.19,86.13,-9.7,1.28,0.1,-8.32,-9.72,1.25,0.12,-8.35,-90463.09,-145084.45,0
82351,1,22,351,20.63,28.77,0,0,400,15072,19071,344.12,-82.56,-84.19,-0.01,0,0,-0.01,0,-0.05,-0.08,-0.13,38.88,13.69,31.06,83.63,-9.72,1.2,0.04,-8.48,-9.72,1.25,0.12,-8.35,-90463.09,-146015.68,0
82537,1,22,537,20.63,28.7,0,0,400,15057,19054,344.06,-82.56,-84.12,0.01,0,-0,0.01,0.01,0.09,0.08,0.18,38.88,14.75,31.38,85.01,-9.7,1.34,0.21,-8.15,-9.72,1.25,0.12,-8.35,-90290.11,-144458.86,0
82728,1,22,728,20.63,28.68,0,0,400,15066,19058,344.31,-82.62,-84.25,-0.01,0,-0,-0.01,0,-0.14,-0.13,-0.27,38.88,15.19,31.06,85.13,-9.71,1.1,0,-8.61,-9.72,1.24,0.12,-8.36,-90290.11,-147012.53,0
82912,1,22,912,20.65,28.67,0,0,400,15066,19060,344.19,-82.62,-83.44,-0.01,-0.01,0.01,-0.01,0.01,0.11,0.1,0.22,40,14.06,31.75,85.81,-9.71,1.36,0.24,-8.11,-9.72,1.24,0.14,-8.34,-90120.83,-145150.45,0
83105,1,23,105,20.65,28.71,0,0,400,15067,19066,344.25,-82.62,-83.44,0.02,0,-0,0.02,0.02,-0.14,0.13,0.01,39.25,14.5,31.75,85.5,-9.72,1.13,0.22,-8.37,-9.72,1.24,0.14,-8.34,-89748.34,-147757.88,0
83292,1,23,292,20.62,28.71,0,0,400,15073,19068,344.25,-82.62,-83.56,-0,0,-0,0,-0.01,0.03,-0.16,-0.14,39.25,14.75,31.38,85.38,-9.74,1.27,-0.02,-8.49,-9.72,1.24,0.14,-8.34,-89923.19,-147233.34,-0
83482,1,23,482,20.62,28.74,0,0,400,15074,19069,344.25,-82.62,-83.25,-0,-0.01,-0,-0.01,0,-0.08,0.07,-0.01,40.25,14.06,31.06,85.37,-9.73,1.16,0.22,-8.35,-9.72,1.24,0.14,-8.34,-89923.19,-148677.34,0
83670,1,23,670,20.62,28.7,0,0,400,15072,19065,344.25,-82.62,-83.25,0.01,0,-0.01,0,-0.01,0.06,0.02,0.07,38.88,14.5,32.19,85.57,-9.74,1.31,0.17,-8.26,-9.72,1.24,0.14,-8.34,-90099.91,-147617.02,-0
83855,1,23,855,20.62,28.7,0,0,400,15071,19070,344.44,-82.62,-83.75,-0,0.01,-0.01,0,0.01,-0.1,-0.11,-0.2,39.25,14.69,31.75,85.69,-9.71,1.13,0.02,-8.56,-9.72,1.24,0.13,-8.35,-89928.78,-149328.27,0
84047,1,24,47,20.6,28.74,0,0,400,15063,19060,344.31,-82.62,-83.38,-0,-0.01,0.01,0,0.01,0.06,0,0.07,40,14.56,32.19,86.75,-9.71,1.29,0.14,-8.28,-9.72,1.24,0.14,-8.34,-89744.46,-148222.35,0
84234,1,24,234,20.62,28.74,0,0,400,15086,19078,344.25,-82.62,-83.12,-0,-0.01,-0,-0.01,0.01,-0.01,0.18,0.18,39.25,15.25,31.75,86.25,-9.7,1.22,0.33,-8.15,-9.72,1.24,0.14,-8.34,-89569.62,-148397.2,0
84423,1,24,423,20.62,28.77,0,0,400,15071,19069,344.38,-82.62,-83.25,0.01,0.01,-0.01,0.01,0.01,-0.14,-0.09,-0.22,38.19,14.56,32.56,85.31,-9.71,1.09,0.04,-8.58,-9.72,1.24,0.14,-8.34,-89391.01,-150897.67,0
84608,1,24,608,20.6,28.68,0,0,400,15077,19072,344.31,-82.62,-83.19,-0,-0.01,0,-0.01,0,-0.06,0,-0.06,38.88,15,32.06,85.94,-9.75,1.27,0.02,-8.46,-9.72,1.24,0.14,-8.34,-89391.01,-151924.42,0
84801,1,24,801,20.6,28.72,0,0,400,15073,19069,344.38,-82.62,-83.19,0.04,-0,-0,0.04,0.01,0.17,-0.15,0.03,40.69,13.5,31.75,85.94,-9.71,1.41,0,-8.3,-9.72,1.24,0.14,-8.34,-89204.77,-148758.25,0
84991,1,24,991,20.62,28.75,0,0,400,15075,19074,344.44,-82.56,-82.94,0.09,-0,-0,0.09,0,0.36,0.13,0.49,40,15,31.75,86.75,-9.72,1.61,0.29,-7.82,-9.72,1.25,0.15,-8.32,-89204.77,-142260.25,0
85174,1,25,174,20.6,28.75,0,0,400,15080,19075,344.5,-82.75,-84.44,-0.06,0.01,0.01,-0.04,-0.06,-0.2,-0.21,-0.47,39.69,14.56,32.19,86.44,-9.79,1.02,-0.1,-8.87,-9.72,1.22,0.11,-8.39,-90209.44,-145609.15,-0.01
85365,1,25,365,20.62,28.72,0,0,400,15073,19071,344.56,-82.69,-84.5,0.15,-0.01,-0.01,0.13,0.07,0.38,0.11,0.56,39.25,15.25,31.75,86.25,-9.64,1.61,0.23,-7.8,-9.72,1.23,0.11,-8.38,-88932.6,-138677.76,0.01
85552,1,25,552,20.65,28.74,0,0,400,15067,19069,345.06,-83,-84.69,-0.05,0.01,-0.01,-0.05,0,-0.38,-0.02,-0.4,39.69,14.56,32.19,86.44,-9.72,0.8,0.08,-8.84,-9.73,1.18,0.1,-8.45,-88932.6,-145321.87,0
85742,1,25,742,20.6,28.77,0,0,400,15077,19071,344.88,-82.94,-84.81,0,-0.02,0.01,-0.01,-0.02,0,-0.12,-0.14,39.25,14.88,32.75,86.88,-9.75,1.19,-0.01,-8.57,-9.73,1.19,0.1,-8.44,-89293.6,-145321.87,-0
85926,1,25,926,20.62,28.75,0,0,400,15083,19080,344.62,-82.81,-82.25,0.03,-0,-0,0.03,0.01,0.3,0.3,0.61,39.69,14.5,31.25,85.44,-9.71,1.52,0.46,-7.73,-9.72,1.21,0.16,-8.35,-89124.32,-140243.47,0
86114,1,26,114,20.62,28.8,0,0,400,15076,19075,344.69,-82.81,-82.44,-0.03,0,-0.01,-0.04,0.01,-0.17,0.07,-0.09,39.25,14.19,32.19,85.63,-9.75,1.11,0.04,-8.6,-9.73,1.21,0.15,-8.37,-88947.6,-143247.71,0
86300,1,26,300,20.62,28.74,0,0,400,15078,19087,344.75,-82.81,-83.06,-0.02,-0.01,0.01,-0.02,0,0.16,-0.03,0.13,39.25,14.19,31.25,84.69,-9.73,1.37,0.11,-8.25,-9.73,1.2,0.14,-8.39,-88947.6,-140480.03,0
86489,1,26,489,20.6,28.75,0,0,400,15076,19072,344.69,-82.75,-82.81,0,0,-0.02,-0.02,0.09,-0.01,-0.03,0.05,40,14.19,32.5,86.69,-9.63,1.2,0.11,-8.32,-9.72,1.21,0.15,-8.36,-87340.16,-140658.64,0.02
86678,1,26,678,20.59,28.75,0,0,400,15081,19088,344.88,-82.81,-83.06,-0,-0,0,0,0,-0.03,0,-0.03,41.06,14.19,31.75,87,-9.72,1.17,0.13,-8.42,-9.73,1.2,0.14,-8.39,-87340.16,-141194.45,0
86862,1,26,862,20.6,28.78,0,0,400,15079,19084,344.75,-82.81,-83.12,0.01,-0,-0,0.01,0,0.13,0.01,0.14,39.69,14.19,31.75,85.63,-9.72,1.34,0.16,-8.22,-9.73,1.21,0.14,-8.38,-87340.16,-138993.81,0
87055,1,27,55,20.6,28.77,0,0,400,15084,19083,344.81,-82.81,-83.06,0.01,-0.01,0,0,0.01,0.08,0.13,0.22,38.5,14.5,31.69,84.69,-9.73,1.23,0.21,-8.29,-9.73,1.21,0.14,-8.38,-87153.91,-137503.85,0
87242,1,27,242,20.62,28.75,0,0,400,15080,19089,344.56,-82.81,-82.81,-0.04,-0.01,0.01,-0.04,0,-0.02,0.07,0.05,40.69,13.75,32.5,86.94,-9.73,1.19,0.22,-8.32,-9.72,1.21,0.15,-8.36,-87153.91,-137853.54,0
87431,1,27,431,20.62,28.8,0,0,400,15079,19084,344.5,-82.69,-82.56,0.03,-0,0,0.03,-0.02,0.1,0.08,0.16,39.25,14.88,31.69,85.82,-9.74,1.33,0.24,-8.17,-9.72,1.22,0.15,-8.35,-87511.12,-136067.49,-0
87616,1,27,616,20.62,28.81,0,0,400,15088,19091,344.94,-82.81,-82.75,0.01,0.01,-0.04,-0.02,0.03,-0.28,-0.12,-0.37,37.75,14.19,31.25,83.19,-9.7,0.87,0.07,-8.76,-9.73,1.21,0.15,-8.37,-86997.75,-140858.99,0.01
87809,1,27,809,20.63,28.81,0,0,400,15080,19087,345,-82.94,-83.12,-0.02,-0.02,0.01,-0.03,0.03,-0.13,-0.06,-0.16,38.5,14.5,32.5,85.5,-9.76,1.04,-0.02,-8.74,-9.73,1.18,0.14,-8.41,-86439.01,-143280.18,0.01
88001,1,28,1,20.63,28.77,0,0,400,15079,19079,344.44,-82.69,-81.62,-0.02,-0.01,0.04,0.01,0,0.47,0.2,0.67,38.75,13.75,31,83.5,-9.68,1.71,0.26,-7.71,-9.72,1.23,0.18,-8.31,-86439.01,-134617.14,0
88184,1,28,184,20.6,28.8,0,0,400,15084,19090,344.5,-82.62,-81.69,-0.06,0.03,-0.03,-0.06,-0.03,0.27,-0.21,0.03,39.56,13.38,32.5,85.44,-9.75,1.5,-0.03,-8.28,-9.72,1.23,0.17,-8.32,-86941.35,-130096.12,-0.01
88375,1,28,375,20.63,28.82,0,0,400,15078,19088,345.69,-83.12,-82.88,0.12,0,-0.04,0.08,-0.05,-0.46,-0.04,-0.55,38.38,14.56,30.88,83.82,-9.78,0.69,0.1,-8.99,-9.73,1.16,0.14,-8.43,-87853.37,-138486.75,-0.01
88560,1,28,560,20.6,28.82,0,0,400,15086,19100,347.25,-83.25,-6.62,0.27,0.01,-0.01,0.27,0.03,0.09,-0.1,0.02,39.69,14.75,31,85.44,-9.7,1.22,0.01,-8.47,-9.73,1.13,0.11,-8.49,-87340,-136946.63,0.01
88750,1,28,750,20.62,28.8,0,0,400,15082,19083,348.31,-83.56,-6.38,-0.09,0.05,-0.07,-0.11,0,0.12,-0.14,-0.02,38.75,16.25,30.5,85.5,-9.74,1.22,-0.08,-8.6,-9.74,1.09,0.06,-8.59,-87340,-134780.63,0
88933,1,28,933,20.62,28.8,0,0,400,15085,19093,349.31,-84.25,-5.69,0.05,0.01,-0.09,-0.03,-0.09,-0.95,-0.18,-1.22,40.19,16.19,31,87.38,-9.85,0.01,-0.17,-10.01,-9.75,0.96,0.01,-8.78,-88847,-150687.9,-0.02
89124,1,29,124,20.62,28.79,0,0,400,15084,19092,348.88,-83.88,-6.06,-0.02,-0.02,0.09,0.05,0.06,-0.49,-0.39,-0.82,39,15.56,30,84.56,-9.68,0.54,-0.34,-9.48,-9.75,1.03,0.05,-8.67,-87752.57,-159625.75,0.01
89309,1,29,309,20.63,28.78,0,0,400,15086,19096,346,-82.81,-83.19,-0.44,-0.02,0.03,-0.43,0.22,1.19,0.35,1.76,39.88,14.56,30.56,85,-9.5,2.4,0.49,-6.61,-9.73,1.21,0.14,-8.38,-83987.82,-139261.87,0.04
89498,1,29,498,20.63,28.82,0,0,400,15084,19105,345.06,-82.88,-82,0.01,0.02,-0.04,-0.01,0.03,0.21,0.15,0.39,39.19,14.69,30.69,84.57,-9.69,1.4,0.32,-7.97,-9.73,1.19,0.16,-8.38,-83452.01,-135511.17,0.01
89687,1,29,687,20.62,28.87,0,0,400,15085,19094,346.31,-83.38,-6.5,0.1,0.04,-0.02,0.12,0.01,-0.25,-0.07,-0.31,39.5,14.56,30.25,84.31,-9.73,0.85,0.03,-8.85,-9.74,1.11,0.11,-8.52,-83273.41,-139976.29,0
89872,1,29,872,20.62,28.88,0,0,400,15085,19099,347.19,-83.44,-6.5,0.12,0.01,0.01,0.14,0.03,0.14,-0.47,-0.3,37.56,15,30.25,82.81,-9.7,1.26,-0.45,-8.89,-9.74,1.11,0.02,-8.61,-82760.03,-137580.54,0.01
90064,1,30,64,20.6,28.84,0,0,400,15082,19097,347.12,-83.38,-6.56,-0.06,-0.02,-0,-0.08,0.01,0.12,0.07,0.2,38.25,15.69,30.25,84.19,-9.73,1.25,0.1,-8.38,-9.74,1.13,0.03,-8.58,-82575.71,-135368.7,0
90252,1,30,252,20.6,28.87,0,0,400,15090,19095,346.69,-83.06,-84.56,0.09,-0,-0,0.09,0.04,0.43,0.53,1,39.06,14.88,30.38,84.32,-9.69,1.6,0.64,-7.45,-9.73,1.17,0.11,-8.45,-81868.83,-127769.74,0.01
90441,1,30,441,20.6,28.87,0,0,400,15081,19098,348,-82.94,-86.75,0.23,0.04,0.02,0.29,0.08,0.32,-0.42,-0.02,38.25,14.88,30.75,83.88,-9.64,1.52,-0.35,-8.47,-9.73,1.19,0.06,-8.48,-80439.99,-122054.38,0.02
90625,1,30,625,20.62,28.9,0,0,400,15084,19099,348.81,-83.19,-173.19,0.08,0.03,-0.03,0.08,0.1,-0.02,-0.64,-0.56,38.69,16,31.06,85.75,-9.82,0.88,-0.4,-9.34,-9.73,1.15,0,-8.58,-78747.19,-122392.94,0.02
90815,1,30,815,20.62,28.94,0,0,400,15087,19100,348.75,-83.31,-6.62,-0.02,-0.06,0.05,-0.03,0,-0.4,-0.35,-0.75,38.69,15.56,29.88,84.13,-9.74,0.73,-0.33,-9.34,-9.74,1.14,0.02,-8.58,-78747.19,-129612.94,0
91005,1,31,5,20.63,28.88,0,0,400,15092,19105,346.12,-82.75,-82.81,-0.42,-0.01,0.04,-0.39,-0.01,-0.07,0.62,0.54,39.25,15.88,30.5,85.63,-9.74,1.15,0.77,-7.82,-9.72,1.22,0.15,-8.35,-78927.69,-130876.44,-0
91188,1,31,188,20.62,28.93,0,0,400,15087,19094,346.5,-83,-83.81,-0.05,0.05,-0.07,-0.07,0.01,-0.46,0.19,-0.26,39.25,14,29.5,82.75,-9.79,0.78,0.2,-8.81,-9.73,1.18,0.12,-8.43,-78760.25,-138578.91,0
91381,1,31,381,20.6,28.85,0,0,400,15089,19087,348.38,-83.56,-6.38,0.14,0.04,0.01,0.19,-0.02,-0.82,0.39,-0.45,38.56,15.38,31.06,85,-9.77,0.27,0.41,-9.09,-9.74,1.09,0.01,-8.64,-79132.74,-153851,-0
91566,1,31,566,20.63,28.9,0,0,400,15093,19104,349.06,-83.62,-6.31,-0.03,-0,-0.04,-0.07,0.06,-0.44,0.02,-0.36,38.19,15,29.75,82.94,-9.68,0.64,0.04,-9,-9.74,1.08,0.01,-8.65,-78105.99,-161380.5,0.01
91755,1,31,755,20.62,28.9,0,0,400,15090,19093,348.94,-83.69,-6.25,0,-0,0.01,0.01,0.01,0.27,0.42,0.7,38.56,15,30.69,84.25,-9.73,1.34,0.44,-7.95,-9.74,1.07,0.01,-8.66,-77927.38,-156558.17,0
91938,1,31,938,20.62,28.9,0,0,400,15091,19098,349.19,-83.62,-6.31,-0.02,0.01,-0.01,-0.02,0,-0.19,-0.25,-0.44,38.56,15.38,30.19,84.13,-9.78,0.95,-0.24,-9.07,-9.74,1.07,0,-8.67,-77927.38,-159739.62,0
92144,1,32,144,20.62,28.92,0,0,400,15094,19102,348.94,-83.62,-6.31,-0.03,-0,0.01,-0.02,0.02,0.16,-0.01,0.17,38.56,15.38,29.75,83.69,-9.72,1.24,0,-8.48,-9.74,1.08,0,-8.66,-77503.02,-156344.74,0
92328,1,32,328,20.6,28.91,0,0,400,15094,19108,348.81,-83.5,-6.44,0.14,-0,0.01,0.15,0.03,0.27,0.21,0.51,38.56,14.75,29.75,83.06,-9.71,1.38,0.23,-8.1,-9.74,1.1,0.02,-8.62,-76995.18,-151774.18,0.01
92520,1,32,520,20.6,28.95,0,0,400,15089,19107,348.56,-83.56,-6.38,-0.14,-0.01,-0,-0.15,0,-0.03,-0.08,-0.11,38.56,14.38,31,83.94,-9.74,1.06,-0.05,-8.73,-9.74,1.09,0.02,-8.63,-76995.18,-152327.14,0
92710,1,32,710,20.62,28.95,0,0,400,15094,19102,347.38,-83.5,-6.44,-0.03,-0.01,-0.01,-0.05,0.05,0.2,0.07,0.32,39,14.25,30.06,83.31,-9.69,1.31,0.12,-8.26,-9.74,1.1,0.05,-8.59,-76092.68,-148717.14,0.01
92892,1,32,892,20.6,28.97,0,0,400,15088,19094,347.62,-83.62,-6.31,0.08,-0.01,0.01,0.08,0.1,0.27,-0.04,0.33,38.56,15.5,30.06,84.12,-9.8,1.22,0.3,-8.28,-9.74,1.08,0.05,-8.61,-74436.48,-144245.4,0.02
93082,1,33,82,20.6,29,0,0,400,15085,19101,347,-83.88,-6.06,-0.19,0.03,-0.04,-0.2,-0.03,-0.45,0.13,-0.35,38.19,14.75,31.56,84.5,-9.74,0.71,-0.42,-9.45,-9.75,1.03,0.02,-8.7,-74977.98,-152367.9,-0.01
93269,1,33,269,20.62,28.93,0,0,400,15085,19097,347.38,-83.94,-5.94,0.09,0.02,-0.02,0.09,-0.7,-0.32,-0.51,-1.53,37.75,14.88,30.06,82.69,-10.45,0.7,-0.51,-10.26,-9.75,1.02,0,-8.73,-87217.13,-157962.94,-0.13
93458,1,33,458,20.6,28.94,0,0,400,15091,19098,348.12,-84,-5.94,0.05,-0.02,0.01,0.04,-0.02,0.22,-0.22,-0.02,38.19,14.75,30.06,83,-9.77,1.24,-0.21,-8.74,-9.75,1.02,0,-8.73,-87574.34,-154033.63,-0
93642,1,33,642,20.62,28.95,0,0,400,15090,19103,347.69,-83.88,-6.06,-0.03,-0.03,0.02,-0.04,-0.11,-0.03,0.33,0.19,39,16,30.19,85.19,-9.86,1,0.36,-8.5,-9.75,1.04,0.03,-8.68,-89436.42,-154541.47,-0.02
93834,1,33,834,20.62,28.96,0,0,400,15088,19107,347.25,-84.06,-5.88,-0.01,0.03,-0.05,-0.03,0,-0.1,-0.14,-0.24,39,15.25,30.5,84.75,-9.74,0.73,-0.18,-9.19,-9.75,1,0.01,-8.74,-89436.42,-156384.67,0
94027,1,34,27,20.62,28.98,0,0,400,15092,19111,347.69,-84.19,-174.19,0.11,0,-0.02,0.09,0.01,0.05,-0.23,-0.17,37.06,16,30.5,83.56,-9.53,0.99,-0.17,-8.71,-9.75,0.98,0,-8.77,-89250.17,-155453.45,0
94211,1,34,211,20.6,28.94,0,0,400,15096,19116,348.69,-83.81,-6.12,-0.13,-0.04,0.05,-0.12,-0.25,-0.03,-0.34,-0.62,38.56,15.56,31.25,85.37,-10,1.01,-0.32,-9.31,-9.75,1.04,0.01,-8.7,-93482.17,-155961.29,-0.05
94401,1,34,401,20.6,29.01,0,0,400,15095,19110,348.06,-83.25,-6.62,0.02,-0,-0.01,0.01,0,0.07,0.14,0.21,37.5,15.56,29.56,82.62,-9.74,1.21,0.23,-8.3,-9.73,1.13,0.08,-8.52,-93482.17,-154697.79,0
94586,1,34,586,20.6,29.03,0,0,400,15098,19107,348.25,-83.25,-6.69,0,0,-0.01,-0.01,0.07,-0.19,0.05,-0.07,39,15.06,30,84.06,-9.66,0.95,0.13,-8.58,-9.73,1.14,0.07,-8.52,-92284.3,-157949.16,0.01
94780,1,34,780,20.6,29,0,0,400,15099,19109,348.12,-83.25,-6.69,-0.02,0,-0,-0.02,0.01,0.01,-0.01,0.01,38.19,15.56,28.06,81.81,-9.72,1.16,0.05,-8.51,-9.73,1.14,0.07,-8.52,-92096.12,-157760.98,0
94965,1,34,965,20.62,29.02,0,0,400,15090,19106,348.06,-83.19,-6.75,0,0.01,-0.01,0,0.03,0.11,-0.09,0.05,37.75,15.19,30,82.94,-9.7,1.27,-0.01,-8.44,-9.73,1.15,0.07,-8.51,-91582.74,-155878.61,0.01
95154,1,35,154,20.6,29,0,0,400,15093,19108,347.81,-83.19,-6.75,-0.04,-0,0,-0.04,0.01,0.07,-0.01,0.07,37.75,14.88,29.88,82.51,-9.72,1.22,0.05,-8.45,-9.73,1.15,0.07,-8.51,-91404.14,-154628.37,0
95339,1,35,339,20.6,29,0,0,400,15097,19110,347.12,-83.12,-85.75,0.11,-0.01,-0,0.1,0.02,0.16,0.26,0.44,39.56,14.5,29.5,83.56,-9.71,1.26,0.19,-8.26,-9.73,1.16,0.08,-8.49,-91061.89,-151890.37,0
95531,1,35,531,20.63,29.07,0,0,400,15088,19100,347.62,-83.12,-86.12,0.06,-0,-0.01,0.05,0,0.02,0.03,0.05,36.75,14.5,29.5,80.75,-9.73,1.19,0.1,-8.44,-9.73,1.16,0.07,-8.5,-91061.89,-151521.73,0
95720,1,35,720,20.63,29.04,0,0,400,15090,19105,347.81,-83.12,-6.75,-0.01,-0,0,-0.01,0,0.01,-0.02,-0.01,37.5,14.5,29.19,81.19,-9.73,1.17,0.04,-8.52,-9.73,1.16,0.06,-8.51,-91061.89,-151343.13,0
95905,1,35,905,20.6,29.04,0,0,400,15098,19120,347.75,-83.12,-6.81,-0,0.01,-0.01,0,0,-0.11,0.01,-0.1,38.56,14.88,29.19,82.63,-9.73,1.04,0.08,-8.61,-9.73,1.16,0.06,-8.51,-91061.89,-153225.5,0
96095,1,36,95,20.62,29.02,0,0,400,15103,19121,347.69,-83.12,-6.81,-0.02,-0,-0,-0.02,0.01,0.07,-0.02,0.06,40,15.19,29.5,84.69,-9.72,1.23,0.03,-8.46,-9.73,1.16,0.05,-8.52,-90881.39,-151962,0
96280,1,36,280,20.62,29,0,0,400,15105,19115,347.44,-83.12,-86.75,0.05,0,-0,0.05,0.02,0.08,-0.09,0.01,38.19,14.88,29.5,82.57,-9.7,1.25,-0.03,-8.48,-9.73,1.16,0.06,-8.51,-90539.14,-150593,0
96469,1,36,469,20.59,29.01,0,0,400,15096,19113,347.62,-83.12,-87.25,-0.01,0,-0.01,-0.02,0.01,-0.08,0.03,-0.04,38.56,15.19,28.75,82.5,-9.72,1.09,0.09,-8.54,-9.73,1.17,0.05,-8.51,-90360.53,-152021.84,0
96652,1,36,652,20.59,29.04,0,0,400,15100,19116,347.69,-83.06,-87.5,-0.01,-0,-0,-0.01,0.02,0.16,-0.08,0.1,37.5,15.19,30.25,82.94,-9.71,1.26,0.02,-8.43,-9.73,1.17,0.05,-8.51,-90025.64,-149342.72,0
96845,1,36,845,20.6,29.05,0,0,400,15099,19114,347.75,-83.06,-87.44,0,0,0,0,0.01,-0.01,-0.11,-0.11,39,16,30.25,85.25,-9.71,1.15,-0.06,-8.62,-9.73,1.17,0.05,-8.51,-89839.4,-149528.97,0
97036,1,37,36,20.59,29.01,0,0,400,15099,19119,347.75,-83.06,-87.62,0.02,-0,-0.01,0.01,0.01,-0.01,0.01,0.01,39,14.88,29.5,83.38,-9.72,1.16,0.06,-8.5,-9.73,1.18,0.04,-8.51,-89656.99,-149711.37,0
97221,1,37,221,20.62,29.04,0,0,400,15106,19124,347.75,-83.06,-87.62,-0.01,0,0,-0.01,0.04,0.04,-0.06,0.02,37.75,15.56,28.75,82.06,-9.69,1.22,-0.01,-8.48,-9.73,1.18,0.04,-8.51,-88972.49,-149026.87,0.01
97410,1,37,410,20.62,29.03,0,0,400,15097,19113,347.69,-83.06,-87.56,0,0,-0,0,0,0.06,0.09,0.15,39,14.5,29.88,83.38,-9.73,1.24,0.14,-8.35,-9.73,1.18,0.04,-8.51,-88972.49,-147955.24,0
97594,1,37,594,20.6,29.05,0,0,400,15112,19131,347.69,-83.06,-87.56,0.01,0,0,0.01,0.03,0,-0.03,0,38.19,15.19,29.19,82.57,-9.74,1.21,0.05,-8.48,-9.73,1.18,0.04,-8.51,-88464.65,-147955.24,0.01
97786,1,37,786,20.62,29.05,0,0,400,15101,19118,347.75,-83.06,-87.62,0,0,-0,0,0.01,-0.08,-0.08,-0.15,39.25,15.19,30.25,84.69,-9.74,1.14,0,-8.6,-9.73,1.18,0.04,-8.51,-88280.33,-149429.8,0
97973,1,37,973,20.6,29.05,0,0,400,15105,19119,347.75,-83.06,-87.62,-0.01,-0,-0,-0.01,0,-0.01,-0.01,-0.02,38.19,14.88,28.38,81.45,-9.72,1.16,0.03,-8.53,-9.73,1.18,0.04,-8.51,-88280.33,-149604.65,0
98162,1,38,162,20.6,29.07,0,0,400,15104,19123,347.69,-83.06,-87.56,0.02,0,-0,0.02,0,0,0,0,38.56,15.19,31.5,85.25,-9.72,1.18,0.04,-8.5,-9.73,1.18,0.04,-8.51,-88280.33,-149604.65,0
98347,1,38,347,20.6,29.06,0,0,400,15105,19120,347.81,-83,-87.75,0.06,-0,0,0.06,0.03,0.29,0,0.32,38.19,14.88,29.19,82.26,-9.7,1.48,0.04,-8.18,-9.73,1.18,0.04,-8.51,-87766.96,-144642.02,0.01
98539,1,38,539,20.62,29.04,0,0,400,15093,19120,348,-83.06,-88,0.01,-0,0.01,0.02,0.02,-0.06,-0.11,-0.15,39,15.5,29.88,84.38,-9.71,1.16,-0.04,-8.59,-9.73,1.17,0.03,-8.53,-87398.32,-145747.94,0
98731,1,38,731,20.6,29.1,0,0,400,15104,19120,347.88,-83,-87.94,-0,0,-0.01,-0.01,-0.01,-0.06,0.12,0.05,39,15.5,29.19,83.69,-9.72,1.12,0.14,-8.46,-9.73,1.18,0.04,-8.51,-87582.64,-146853.86,-0
98916,1,38,916,20.6,29.06,0,0,400,15109,19122,347.94,-83,-88.25,-0,-0,-0.01,-0.01,0,0.01,-0.04,-0.03,37.5,15.5,29.88,82.88,-9.72,1.19,0,-8.53,-9.73,1.18,0.03,-8.52,-87582.64,-146682.74,0
99106,1,39,106,20.6,29.08,0,0,400,15105,19121,347.94,-83,-88.12,-0.01,0,-0.01,-0.02,0.03,0,-0.08,-0.05,39,14.06,29.5,82.56,-9.7,1.19,-0.04,-8.55,-9.73,1.18,0.03,-8.52,-87041.14,-146682.74,0.01
99290,1,39,290,20.62,29.1,0,0,400,15101,19119,347.88,-83,-88.12,-0.02,-0,0,-0.02,0.01,0.09,0.09,0.19,39.25,14.88,29.5,83.63,-9.72,1.27,0.09,-8.36,-9.73,1.18,0.03,-8.52,-86871.86,-145159.22,0
99485,1,39,485,20.62,29.07,0,0,400,15105,19129,347.81,-83,-88.06,0.05,-0,-0,0.05,0.04,0.02,-0.02,0.04,37.5,15.56,29.88,82.94,-9.69,1.21,0.01,-8.47,-9.73,1.18,0.03,-8.52,-86111.36,-144778.97,0.01
99668,1,39,668,20.6,29.05,0,0,400,15104,19120,347.88,-83,-88.12,0.02,-0,-0,0.02,0.03,0.13,-0.04,0.12,39,15.19,28.75,82.94,-9.7,1.32,0,-8.38,-9.73,1.18,0.03,-8.52,-85609.02,-142602.18,0.01
99860,1,39,860,20.65,29.07,0,0,400,15101,19120,348,-83,-88.25,0.05,0,0,0.05,0.03,0.18,0,0.21,38.19,14.88,30.69,83.76,-9.7,1.37,0.04,-8.29,-9.73,1.18,0.03,-8.52,-85056.06,-139284.42,0.01
100046,1,40,46,20.6,29.11,0,0,400,15105,19121,348.12,-83,-88.38,0.02,-0,-0,0.02,0.01,-0.12,-0.03,-0.14,38.56,14.88,29.19,82.63,-9.74,1.08,0,-8.66,-9.73,1.18,0.03,-8.52,-84883.08,-141360.18,0
100235,1,40,235,20.6,29.02,0,0,400,15110,19131,348.06,-83,-88.31,-0.01,-0,-0.01,-0.02,0.01,0.02,0,0.03,39.25,14.5,29.5,83.25,-9.71,1.22,0.05,-8.44,-9.73,1.18,0.03,-8.52,-84704.48,-141002.97,0
100427,1,40,427,20.6,29.07,0,0,400,15103,19127,348.12,-83,-88.38,0.01,-0,-0,0.01,0.03,0.07,-0.04,0.06,38.56,15.19,29.5,83.25,-9.69,1.26,0,-8.43,-9.73,1.18,0.03,-8.52,-84151.52,-139712.73,0.01
100612,1,40,612,20.62,29.07,0,0,400,15103,19126,348.12,-83,-88.38,0.01,0,-0,0.01,0.02,0,0.05,0.07,38.56,14.88,29.5,82.94,-9.71,1.18,0.08,-8.45,-9.73,1.18,0.03,-8.52,-83809.27,-139712.73,0
100804,1,40,804,20.62,29.08,0,0,400,15100,19124,348.19,-83,-88.44,0.01,-0,0,0.01,0.01,0.08,-0.01,0.08,39,14.88,30.25,84.13,-9.71,1.27,0.01,-8.43,-9.73,1.18,0.03,-8.52,-83624.95,-138238.17,0
100991,1,40,991,20.62,29.08,0,0,400,15107,19128,348.25,-83,-88.5,-0.03,0,0,-0.03,0,0.09,0,0.09,38.88,15.5,29.88,84.26,-9.73,1.28,0.02,-8.43,-9.73,1.18,0.03,-8.52,-83624.95,-136664.57,0
101180,1,41,180,20.57,29.1,0,0,400,15110,19133,348.31,-83,-88.5,0.01,0,-0,0.01,0,-0.05,-0.01,-0.06,37.69,14.75,29.88,82.32,-9.72,1.13,0.01,-8.58,-9.73,1.18,0.02,-8.53,-83624.95,-137557.59,0
101364,1,41,364,20.6,29.1,0,0,400,15115,19137,348.25,-83,-88.5,-0,-0,-0.01,-0.01,0.01,0.08,-0.04,0.05,38.88,14.75,29.88,83.51,-9.71,1.27,-0.01,-8.45,-9.73,1.18,0.03,-8.52,-83455.67,-136203.35,0
101558,1,41,558,20.6,29.07,0,0,400,15110,19130,348.31,-83,-88.56,-0,0,-0,0,0.03,0.03,-0.01,0.05,38.88,14.75,29.88,83.51,-9.73,1.24,-0.03,-8.52,-9.73,1.18,0.02,-8.53,-82891.13,-135638.81,0.01
101750,1,41,750,20.63,29.12,0,0,400,15105,19123,348.31,-83,-88.56,0.01,-0,-0,0.01,0,-0.01,-0.01,-0.02,38.5,15.88,29.5,83.88,-9.72,1.17,0.01,-8.54,-9.73,1.18,0.02,-8.53,-82891.13,-135823.13,0
101935,1,41,935,20.62,29.07,0,0,400,15104,19126,348.31,-83,-88.56,0,-0,-0,0,0,0.01,0.05,0.06,37.69,15.5,29.88,83.07,-9.73,1.2,0.08,-8.45,-9.73,1.18,0.02,-8.53,-82891.13,-135652.01,0
102123,1,42,123,20.59,29.06,0,0,400,15105,19124,348.44,-83,-88.69,-0.01,0,0,-0.01,0.01,0.07,-0.03,0.05,38.5,14.38,30.25,83.13,-9.72,1.26,0,-8.46,-9.73,1.18,0.02,-8.53,-82714.41,-134414.97,0
102308,1,42,308,20.62,29.08,0,0,400,15111,19134,348.44,-83,-88.69,0.01,0,-0,0.01,0,-0.07,0.13,0.06,38.19,14.5,30.25,82.94,-9.74,1.11,0.16,-8.47,-9.73,1.18,0.02,-8.53,-82714.41,-135612.84,0
102500,1,42,500,20.6,29.06,0,0,400,15110,19128,348.56,-83,-88.75,0.01,-0.01,0,0,0.01,0.1,-0.01,0.1,39,14.88,29.19,83.07,-9.7,1.28,0.04,-8.38,-9.73,1.18,0.02,-8.53,-82530.09,-133769.64,0
102687,1,42,687,20.59,29.05,0,0,400,15112,19137,348.56,-83,-88.81,-0.01,0,-0,-0.01,0.01,0.01,-0.01,0.01,37.06,15.19,29.5,81.75,-9.72,1.2,0,-8.52,-9.73,1.18,0.02,-8.53,-82355.25,-133594.8,0
102875,1,42,875,20.6,29.08,0,0,400,15108,19131,348.56,-83,-88.81,0,0,-0,0,0.02,0.05,0.09,0.16,39,15.56,28.38,82.94,-9.71,1.24,0.12,-8.35,-9.73,1.18,0.02,-8.53,-82001.81,-132711.2,0
103066,1,43,66,20.62,29.07,0,0,400,15111,19135,348.56,-83,-88.81,0,-0,0,0,0,0,-0.01,-0.01,38.56,15.56,29.19,83.31,-9.72,1.18,0,-8.54,-9.73,1.18,0.02,-8.53,-82001.81,-132711.2,0
103250,1,43,250,20.6,29.1,0,0,400,15109,19139,348.56,-83,-88.81,0.01,-0,-0.01,0,0.03,-0.01,-0.06,-0.04,39,15.19,28.75,82.94,-9.7,1.17,-0.03,-8.56,-9.73,1.18,0.02,-8.53,-81493.97,-132880.48,0.01
103443,1,43,443,20.6,29.11,0,0,400,15111,19126,348.56,-83,-88.81,0,-0,-0,0,0,0.01,-0.03,-0.02,37.5,14.88,28.38,80.76,-9.72,1.2,-0.01,-8.53,-9.73,1.18,0.02,-8.53,-81493.97,-132694.23,0
103628,1,43,628,20.62,29.08,0,0,400,15103,19133,348.56,-83,-88.81,0.01,0,-0,0.01,0.01,-0.02,-0.04,-0.05,37.75,14.88,29.56,82.19,-9.72,1.16,-0.01,-8.57,-9.73,1.18,0.02,-8.53,-81322.84,-133036.48,0
103819,1,43,819,20.62,29.08,0,0,400,15111,19134,348.56,-83,-88.75,-0,-0,0,0,0,-0.03,0.11,0.08,38.56,14.88,30.25,83.69,-9.72,1.15,0.14,-8.43,-9.73,1.18,0.02,-8.53,-81322.84,-133583.7,0
104004,1,44,4,20.6,29.04,0,0,400,15113,19148,348.56,-83,-88.81,0.01,0,-0.01,0,0,-0.08,-0.09,-0.17,39,14.88,29.19,83.07,-9.71,1.11,-0.06,-8.66,-9.73,1.18,0.02,-8.53,-81322.84,-134952.7,0
104199,1,44,199,20.6,29.1,0,0,400,15113,19140,348.56,-83,-88.81,0,0,-0,0,0.01,0.06,0,0.07,39.25,15.19,29.88,84.32,-9.71,1.25,0.03,-8.43,-9.73,1.18,0.02,-8.53,-81132.72,-133811.95,0
104384,1,44,384,20.59,29.07,0,0,400,15115,19150,348.62,-83,-88.88,0,0,-0,0,0,0,0,0,39,14.5,29.19,82.69,-9.72,1.19,0.01,-8.52,-9.73,1.18,0.02,-8.53,-81132.72,-133811.95,0
104577,1,44,577,20.6,29.1,0,0,400,15110,19136,348.62,-83,-88.88,-0.01,-0,-0,-0.01,0,0.02,0,0.02,38.19,15.56,29.19,82.94,-9.72,1.18,0.06,-8.48,-9.73,1.18,0.02,-8.53,-81132.72,-133439.46,0
104769,1,44,769,20.6,29.08,0,0,400,15111,19140,348.69,-83,-88.94,0.02,0,-0.01,0.01,0,-0.02,0.08,0.06,38.06,15.06,29.06,82.18,-9.73,1.16,0.1,-8.47,-9.73,1.18,0.02,-8.53,-81132.72,-133808.1,0
104954,1,44,954,20.6,29.08,0,0,400,15109,19137,348.75,-83.06,-89.38,-0.01,-0.01,0.01,-0.01,0,0.13,0.11,0.24,38.88,15.06,29.38,83.32,-9.73,1.31,0.12,-8.3,-9.73,1.18,0.01,-8.54,-81132.72,-131583.47,0
105143,1,45,143,20.6,29.06,0,0,400,15117,19148,348.81,-82.94,-88.5,0.03,0.01,-0.01,0.03,0.02,-0.01,-0.13,-0.12,38.75,15.06,29,82.81,-9.7,1.18,-0.1,-8.62,-9.73,1.19,0.03,-8.51,-80775.51,-131762.08,0
105327,1,45,327,20.62,29.06,0,0,400,15111,19146,348.81,-83,-89,-0.01,-0.01,0.01,-0.01,0,-0.01,0.16,0.15,38.75,15.06,29.25,83.06,-9.74,1.17,0.18,-8.39,-9.73,1.18,0.02,-8.53,-80775.51,-131931.36,0
105519,1,45,519,20.62,29.07,0,0,400,15115,19150,348.81,-82.94,-88.44,0.01,0,-0.01,0,0.01,-0.07,-0.07,-0.13,39.38,15.06,30.06,84.5,-9.72,1.11,-0.08,-8.69,-9.73,1.2,0.03,-8.5,-80591.19,-133221.6,0
105705,1,45,705,20.6,29.07,0,0,400,15120,19148,348.81,-83,-88.75,-0.02,-0,0.01,-0.01,0.02,0.14,0.05,0.21,38.75,14.06,29.69,82.5,-9.7,1.33,0.07,-8.3,-9.73,1.19,0.02,-8.52,-80245.23,-130799.88,0
105896,1,45,896,20.59,29.06,0,0,400,15109,19129,348.69,-82.94,-88.44,0.02,0,-0,0.02,0,-0.04,-0.09,-0.13,38.75,14.75,29.25,82.75,-9.73,1.15,-0.06,-8.64,-9.73,1.19,0.03,-8.51,-80245.23,-131529.5,0
106085,1,46,85,20.59,29.05,0,0,400,15118,19148,348.62,-82.94,-88.44,-0.05,-0,0,-0.05,0.01,-0.09,0.04,-0.04,39.06,14.38,29,82.44,-9.72,1.1,0.08,-8.54,-9.73,1.19,0.03,-8.51,-80066.62,-133136.94,0
106268,1,46,268,20.59,29.1,0,0,400,15122,19155,348.75,-82.88,-88.31,-0.04,0.01,-0.01,-0.04,0,-0.17,-0.15,-0.32,39.06,15,30.5,84.56,-9.73,1.03,-0.12,-8.82,-9.73,1.2,0.03,-8.5,-80066.62,-135983.51,0
106458,1,46,458,20.57,29.1,0,0,400,15121,19153,348.5,-82.94,-88.31,-0.06,-0,0,-0.06,0.01,0.03,0.09,0.13,38,15.75,30.75,84.5,-9.71,1.23,0.13,-8.35,-9.73,1.2,0.03,-8.5,-79886.12,-135442.01,0
106641,1,46,641,20.6,29.07,0,0,400,15115,19154,348.31,-82.94,-87.94,0,0.01,-0,0.01,0,-0.1,-0.1,-0.2,39.06,14.75,29.25,83.06,-9.73,1.13,-0.06,-8.66,-9.73,1.2,0.04,-8.49,-79886.12,-137116.46,0
106834,1,46,834,20.59,29.1,0,0,400,15112,19150,348.25,-82.94,-88.06,-0.02,-0,0,-0.02,0,-0.03,0.05,0.02,37.56,15.06,29,81.62,-9.7,1.19,0.07,-8.44,-9.73,1.2,0.04,-8.49,-79886.12,-137675.19,0
107020,1,47,20,20.59,29.06,0,0,400,15117,19152,347.81,-82.94,-87.56,-0.04,-0,-0,-0.04,0.02,0.12,0,0.14,38.38,15.06,29,82.44,-9.71,1.33,0.05,-8.33,-9.73,1.2,0.04,-8.49,-79540.16,-135599.43,0
107210,1,47,210,20.6,29.1,0,0,400,15114,19151,347.75,-82.94,-87.44,0.02,0,-0,0.02,0.02,0.04,0,0.06,38.75,14.25,30.06,83.06,-9.71,1.24,0.06,-8.41,-9.73,1.2,0.05,-8.48,-79179.16,-134877.43,0
107394,1,47,394,20.59,29.11,0,0,400,15118,19156,347.62,-82.94,-87.5,-0.05,-0.01,0.01,-0.05,0.01,0.06,-0.11,-0.04,38,15,29.69,82.69,-9.71,1.34,-0.04,-8.41,-9.73,1.19,0.05,-8.49,-79009.88,-133861.75,0
107586,1,47,586,20.62,29.11,0,0,400,15121,19150,347.56,-82.88,-87.31,0.02,0,-0.01,0.01,0,-0.12,0.02,-0.1,38.75,14.38,29.38,82.51,-9.72,1.06,0.06,-8.6,-9.73,1.2,0.05,-8.48,-79009.88,-136073.59,0
107778,1,47,778,20.6,29.08,0,0,400,15115,19153,347.69,-82.88,-87.56,-0.02,0,-0,-0.02,0.01,0.06,-0.05,0.02,36.88,14.75,29.06,80.69,-9.71,1.27,0,-8.44,-9.73,1.2,0.05,-8.48,-78825.56,-134967.67,0
107963,1,47,963,20.62,29.1,0,0,400,15120,19152,347.81,-82.88,-87.56,0.01,0,-0,0.01,0.01,0.01,-0.01,0.01,39.06,14.06,28.69,81.81,-9.71,1.22,0.03,-8.46,-9.73,1.2,0.05,-8.48,-78654.44,-134796.55,0
108152,1,48,152,20.6,29.02,0,0,400,15117,19154,348.06,-82.88,-87.94,-0.01,0,-0,-0.01,0.01,-0.02,-0.02,-0.03,38.75,14.38,30.88,84.01,-9.71,1.18,0.01,-8.52,-9.73,1.2,0.04,-8.49,-78475.83,-135153.76,0
108336,1,48,336,20.59,29.08,0,0,400,15113,19148,348.19,-82.88,-88,0.01,-0,-0,0.01,0.02,0.11,0,0.13,38.38,14.38,29.69,82.45,-9.74,1.27,0.03,-8.44,-9.73,1.2,0.04,-8.49,-78137.27,-133291.68,0
108529,1,48,529,20.6,29.08,0,0,400,15124,19155,348.19,-82.88,-88.06,0,-0,0,0,0.02,0.01,-0.18,-0.15,38.75,14.38,29,82.13,-9.72,1.19,-0.06,-8.59,-9.73,1.2,0.04,-8.49,-77764.78,-133105.43,0
108715,1,48,715,20.59,29.11,0,0,400,15119,19153,348.06,-82.88,-87.88,0.02,0,0,0.02,0,0.06,0.1,0.16,38,15.06,29.69,82.75,-9.72,1.27,0.15,-8.3,-9.73,1.2,0.04,-8.49,-77764.78,-132067.55,0
108906,1,48,906,20.6,29.08,0,0,400,15117,19152,348.25,-82.88,-88.06,0.03,-0.01,-0,0.02,-0.01,-0.18,0.12,-0.07,38.38,14.06,29.25,81.69,-9.74,1.02,0.16,-8.56,-9.73,1.2,0.03,-8.5,-77947.19,-135350.84,-0
109096,1,49,96,20.62,29.04,0,0,400,15125,19165,348.31,-82.88,-88.19,0.02,-0,-0.01,0.01,0.02,0.03,-0.07,-0.02,37.5,14.5,29.69,81.69,-9.7,1.24,-0.03,-8.49,-9.73,1.2,0.03,-8.5,-77586.19,-134809.34,0
109281,1,49,281,20.59,29.05,0,0,400,15117,19155,348.38,-82.88,-88.19,0.01,0,0,0.01,0.01,0.08,-0.03,0.06,38.25,15.19,29.25,82.69,-9.71,1.26,0.02,-8.43,-9.73,1.2,0.03,-8.5,-77415.06,-133440.34,0
109473,1,49,473,20.57,29.12,0,0,400,15120,19151,348.19,-82.88,-88,-0.02,-0,-0,-0.02,0,-0.12,0,-0.12,38.69,14.5,29.69,82.88,-9.72,1.08,0.03,-8.61,-9.73,1.2,0.04,-8.49,-77415.06,-135652.18,0
109658,1,49,658,20.62,29.11,0,0,400,15119,19161,348.06,-82.88,-87.88,0,0,-0,0,0,-0.14,0.01,-0.13,38.25,14.88,29,82.13,-9.73,1.06,0.05,-8.62,-9.73,1.2,0.04,-8.49,-77415.06,-138047.93,0
109847,1,49,847,20.6,29.08,0,0,400,15114,19160,348.19,-82.88,-88.06,0.03,0,-0.01,0.02,0.02,0.11,0,0.13,38.25,16,30.88,85.13,-9.7,1.32,0.03,-8.35,-9.73,1.2,0.04,-8.49,-77057.85,-136083.28,0
110032,1,50,32,20.59,29.08,0,0,400,15122,19164,348.69,-82.88,-88.56,0.05,0,-0,0.05,0.01,-0.03,0.02,3.46944695195361e-18,37.88,14.75,30.5,83.13,-9.7,1.22,0,-8.48,-9.73,1.2,0.02,-8.51,-76886.73,-136596.65,0
110225,1,50,225,20.59,29.07,0,0,400,15129,19165,348.75,-82.88,-88.56,-0.01,-0.01,0,-0.02,0,0.04,0.07,0.11,37.88,15.06,29,81.94,-9.73,1.24,0.1,-8.39,-9.73,1.2,0.02,-8.51,-76886.73,-135851.67,0
110410,1,50,410,20.6,29.08,0,0,400,15119,19151,348.62,-82.88,-88.44,0.01,0,-0,0.01,0.02,0.01,-0.04,-0.01,38.25,15.56,28.56,82.37,-9.71,1.22,-0.01,-8.5,-9.73,1.2,0.03,-8.5,-76544.48,-135680.55,0
110599,1,50,599,20.59,29.06,0,0,400,15125,19163,348.62,-82.88,-88.38,0.03,-0.01,0.01,0.03,0,-0.01,-0.07,-0.08,37.88,14.88,29,81.76,-9.73,1.19,-0.04,-8.58,-9.73,1.2,0.03,-8.5,-76544.48,-135859.15,0
110789,1,50,789,20.59,29.06,0,0,400,15114,19158,348.5,-82.88,-88.31,-0.01,-0,0,-0.01,0,0,-0.03,-0.03,37.5,14.88,28.56,80.94,-9.72,1.21,0,-8.51,-9.73,1.2,0.03,-8.5,-76544.48,-135859.15,0
110973,1,50,973,20.59,29.06,0,0,400,15122,19161,348.31,-82.88,-88.12,-0.02,0,-0,-0.02,0.02,0.04,0.01,0.07,39,14.5,29.69,83.19,-9.7,1.24,0.05,-8.41,-9.73,1.2,0.03,-8.5,-76205.92,-135182.03,0
111165,1,51,165,20.57,29.11,0,0,400,15122,19168,348.5,-82.88,-88.25,-0.01,0,-0,-0.01,-0.01,-0.08,0,-0.09,37.88,14.5,30.75,83.13,-9.74,1.11,0.03,-8.6,-9.73,1.2,0.03,-8.5,-76390.24,-136656.59,-0
111351,1,51,351,20.57,29.1,0,0,400,15128,19172,348.62,-82.88,-88.44,0.03,0,-0,0.03,0,0.11,0.08,0.19,37.88,14.19,28.56,80.63,-9.73,1.32,0.11,-8.3,-9.73,1.2,0.03,-8.5,-76390.24,-134753.81,0
111541,1,51,541,20.59,29.08,0,0,400,15118,19165,348.94,-82.88,-88.75,0.01,0,-0.01,0,0.01,-0.05,0.03,-0.01,37.88,14.75,30.06,82.69,-9.72,1.15,0.05,-8.52,-9.73,1.2,0.02,-8.51,-76209.74,-135656.31,0
111726,1,51,726,20.59,29.1,0,0,400,15124,19168,349,-82.88,-88.81,0.02,0,-0,0.02,0.01,0.11,-0.12,0,38.25,15.06,30.06,83.37,-9.72,1.32,-0.1,-8.5,-9.73,1.2,0.02,-8.51,-76038.61,-133773.94,0
111919,1,51,919,20.56,29.08,0,0,400,15123,19168,349,-82.88,-88.81,-0.01,0,0,-0.01,0.01,0.03,0.06,0.1,39,15.5,30.06,84.56,-9.71,1.28,0.11,-8.32,-9.73,1.2,0.02,-8.51,-75852.37,-133215.2,0
112110,1,52,110,20.59,29.1,0,0,400,15124,19163,349.19,-82.88,-89,0.04,-0,-0,0.04,0,-0.13,0,-0.13,37.19,15.06,30.06,82.31,-9.74,1.07,0.02,-8.65,-9.73,1.2,0.01,-8.52,-75852.37,-135586.47,0
112295,1,52,295,20.59,29.14,0,0,400,15125,19174,349.44,-82.88,-89.25,0.03,-0,-0.01,0.02,0.02,0.01,0,0.03,37.88,15.06,29.25,82.19,-9.71,1.22,0.01,-8.48,-9.73,1.2,0.01,-8.52,-75510.12,-135415.34,0
112487,1,52,487,20.57,29.06,0,0,400,15116,19152,349.56,-82.88,-89.38,0.01,-0,-0,0.01,0.01,0.09,0.02,0.12,37.19,15.75,29.19,82.13,-9.71,1.29,0.03,-8.39,-9.73,1.2,0.01,-8.52,-75325.8,-133756.46,0
112675,1,52,675,20.6,29.1,0,0,400,15122,19168,349.44,-82.88,-89.25,-0.03,-0,0,-0.03,0.01,0.05,0.16,0.22,38.69,15,28.5,82.19,-9.72,1.25,0.18,-8.29,-9.73,1.2,0.01,-8.52,-75149.08,-132872.86,0
112865,1,52,865,20.57,29.1,0,0,400,15129,19168,349.5,-82.88,-89.25,-0.01,-0,0,-0.01,0.02,0.07,0.07,0.16,37.88,15.06,28.5,81.44,-9.71,1.28,0.08,-8.35,-9.73,1.2,0.01,-8.52,-74788.08,-131609.36,0
113049,1,53,49,20.57,29.14,0,0,400,15130,19171,349.5,-82.88,-89.31,0,-0,0,0,0,-0.05,0.01,-0.04,37.88,14.75,29.56,82.19,-9.73,1.14,0.03,-8.56,-9.73,1.2,0.01,-8.52,-74788.08,-132455.76,0
113242,1,53,242,20.6,29.11,0,0,400,15125,19168,349.56,-82.88,-89.31,0.01,0,-0,0.01,0.03,0.05,0.12,0.2,37.88,15.06,29,81.94,-9.72,1.23,0.06,-8.43,-9.73,1.2,0.01,-8.52,-74229.34,-131524.54,0.01
113451,1,53,451,20.57,29.11,0,0,400,15128,19175,349.69,-82.88,-89.5,-0,-0,-0,-0,0.03,0.13,-0.09,0.07,38.25,15.88,29.56,83.69,-9.74,1.29,0.04,-8.41,-9.73,1.2,0,-8.53,-73574.13,-128685.27,0.01
113638,1,53,638,20.6,29.07,0,0,400,15128,19173,349.69,-82.88,-89.44,-0.02,0,0,-0.02,-0.01,-0.1,0.04,-0.07,38.25,15.5,28.06,81.81,-9.74,1.09,0.05,-8.6,-9.73,1.2,0.01,-8.52,-73748.97,-130433.72,-0
113829,1,53,829,20.59,29.12,0,0,400,15131,19168,349.75,-82.88,-89.5,0.01,-0.01,-0,0,-0.01,-0.14,0,-0.15,38.25,15.5,30,83.75,-9.74,1.06,0,-8.68,-9.73,1.2,0,-8.53,-73931.38,-132987.39,-0
