time (ms), temperature (C), humidity (%), he (ppm), iaq, tvoc (ppb), eco2 (ppm), iaqr, h2 (ppb), ethanol (ppb), lux, als, white, ori_x (m/s^2), ori_y (m/s^2), ori_z (m/s^2), gyro_x (rad), gyro_y (rad), gyro_z (rad), linear_x (m/s^2), linear_y (m/s^2), linear_z (m/s^2), magnetic_x (?T), magnetic_y (?T), magnetic_z (?T), acceleration_x (m/s^2), acceleration_y (m/s^2), acceleration_z (m/s^2), gravity_x (m/s^2), gravity_y (m/s^2), gravity_z (m/s^2), x_pos (m), y_pos (m), head (m)
2226, 26.33, 51.65, 0,  , 0, 400,  , 12381, 16219, 2830.74, 5329, 9456, 0.00, 0.00, 0.00, 0.00, 0.00, 0.00, 0.00, 0.00, 0.00, 0.00, 0.00, 0.00, 0.00, 0.00, 0.00, 0.00, 0.00, 0.00, 0.00, 0.00, 0.00
2710, 26.29, 51.64, 0,  , 0, 400,  , 12579, 16356, 2824.31, 5309, 9454, 0.00, -85.31, -175.31, -0.01, -0.02, 0.01, -0.16, -0.07, -0.08, 13.38, -6.06, 32.69, -9.88, 0.85, -0.21, -9.77, 0.79, -0.04, -18740.48, -8198.96, -0.08
3192, 26.29, 51.62, 0,  , 0, 400,  , 12727, 16452, 2828.99, 5318, 9398, 358.12, -85.00, -4.94, -0.16, -0.00, 0.03, -0.15, -0.48, -0.15, 13.38, -6.38, 33.25, -9.92, 0.37, -0.12, -9.76, 0.85, 0.02, -36164.78, -63956.72, -0.07
3673, 26.30, 51.67, 0,  , 0, 400,  , 12851, 16533, 2820.81, 5304, 9288, 356.12, -84.12, -5.75, -0.05, 0.00, 0.00, -0.17, 0.05, -0.43, 13.56, -7.00, 32.19, -9.95, 0.94, -0.28, -9.75, 0.99, 0.10, -55830.47, -58172.69, -0.08
4156, 26.29, 51.64, 0,  , 0, 400,  , 12960, 16602, 2829.57, 5319, 9297, 356.50, -84.56, -5.38, 0.02, 0.03, -0.06, -0.21, -0.37, -0.01, 13.56, -6.38, 32.56, -9.97, 0.54, 0.08, -9.76, 0.91, 0.10, -80325.81, -101331.16, -0.10
4639, 26.27, 51.69, 0,  , 0, 400,  , 13053, 16662, 2824.31, 5309, 9317, 356.50, -84.62, -5.31, -0.00, -0.02, 0.01, -0.12, 0.20, -0.09, 14.06, -6.38, 32.56, -9.88, 1.11, -0.07, -9.76, 0.91, 0.02, -94323.15, -78002.26, -0.06
5119, 26.29, 51.66, 0,  , 0, 400,  , 13127, 16708, 2820.22, 5313, 9280, 355.62, -84.38, -5.56, 0.02, 0.03, -0.03, -0.06, 0.09, 0.04, 14.38, -4.69, 33.69, -9.82, 1.04, 0.08, -9.76, 0.95, 0.03, -101235.15, -67634.26, -0.03
5601, 26.27, 51.71, 0,  , 0, 400,  , 13192, 16732, 2813.80, 5278, 9323, 356.62, -85.56, -175.56, 0.00, -0.01, -0.02, -0.17, -0.32, -0.09, 16.19, -1.00, 32.00, -9.95, 0.42, -0.16, -9.77, 0.74, -0.07, -120982.69, -104806.10, -0.08
6080, 26.29, 51.69, 0,  , 0, 400,  , 13250, 16769, 2810.88, 5287, 9306, 356.31, -85.44, -175.44, -0.00, -0.00, -0.03, -0.13, -0.03, 0.00, 17.06, -2.56, 33.38, -9.91, 0.74, -0.04, -9.77, 0.77, -0.05, -135896.35, -108247.71, -0.06
6563, 26.29, 51.72, 0,  , 0, 400,  , 13294, 16791, 2806.21, 5279, 9313, 356.38, -85.56, -175.56, -0.01, -0.01, -0.00, -0.12, 0.06, 0.00, 17.06, -1.06, 34.38, -9.90, 0.82, -0.07, -9.77, 0.75, -0.06, -149893.69, -101249.04, -0.06
7045, 26.27, 51.67, 0,  , 0, 400,  , 13341, 16823, 2803.29, 5274, 9291, 356.44, -85.56, -175.56, -0.01, -0.00, -0.00, -0.09, 0.03, -0.01, 17.06, -1.88, 33.69, -9.86, 0.78, -0.07, -9.77, 0.74, -0.06, -160348.27, -97764.18, -0.04
7525, 26.26, 51.70, 0,  , 0, 400,  , 13379, 16843, 2799.79, 5266, 9291, 356.44, -85.56, -175.56, 0.01, 0.01, -0.00, -0.12, 0.06, -0.07, 17.88, -1.88, 34.06, -9.90, 0.81, -0.15, -9.77, 0.74, -0.07, -174172.27, -90852.18, -0.06
8011, 26.26, 51.67, 0,  , 0, 400,  , 13411, 16869, 2797.46, 5269, 9296, 356.38, -85.56, -175.56, -0.00, -0.00, 0.01, -0.11, 0.01, 0.07, 17.06, -1.50, 34.06, -9.87, 0.80, -0.02, -9.77, 0.75, -0.07, -187163.05, -89671.20, -0.05
8496, 26.29, 51.68, 0,  , 0, 400,  , 13452, 16895, 2800.96, 5270, 9313, 356.38, -85.50, -175.56, 0.00, 0.00, -0.00, -0.10, -0.01, 0.03, 17.88, -1.06, 33.69, -9.88, 0.73, -0.05, -9.77, 0.75, -0.08, -198924.30, -90847.33, -0.05
8978, 26.26, 51.62, 0,  , 0, 400,  , 13482, 16918, 2802.13, 5272, 9319, 356.31, -85.50, -175.50, -0.06, 0.01, 0.04, -0.02, -0.56, 0.31, 17.75, -2.25, 32.00, -9.80, 0.19, 0.22, -9.77, 0.76, -0.08, -201247.54, -155898.05, -0.01
9460, 26.27, 51.66, 0,  , 0, 400,  , 13513, 16940, 2799.21, 5267, 9302, 355.62, -85.44, -175.44, 0.03, 0.03, 0.05, -0.23, 0.32, -1.19, 20.25, -4.00, 28.69, -10.01, 1.10, -1.24, -9.77, 0.77, -0.05, -227964.80, -118726.21, -0.11
9941, 26.26, 51.66, 0,  , 0, 400,  , 13539, 16963, 2800.96, 5265, 9287, 355.12, -85.38, -175.44, -0.06, 0.06, -0.00, -0.04, 0.00, 0.29, 19.75, -3.38, 29.56, -9.82, 0.78, 0.23, -9.77, 0.77, -0.05, -232592.02, -118726.21, -0.02
10428, 26.25, 51.62, 0,  , 0, 400,  , 13559, 16980, 2796.29, 5262, 9254, 355.06, -85.50, -4.44, -0.01, 0.09, -0.02, -0.14, -0.35, 0.53, 20.69, -5.25, 28.50, -9.92, 0.41, 0.54, -9.77, 0.76, 0.00, -249193.85, -160230.78, -0.07
10910, 26.26, 51.67, 0,  , 0, 400,  , 13584, 16999, 2784.04, 5241, 9298, 355.81, -85.56, -175.81, 0.03, 0.02, -0.00, -0.11, 0.17, 0.14, 20.50, -5.00, 28.88, -9.88, 0.88, -0.11, -9.77, 0.71, -0.25, -261971.67, -140483.24, -0.05
11391, 26.26, 51.61, 0,  , 0, 400,  , 13605, 17026, 2782.88, 5239, 9325, 355.81, -85.56, -175.88, -0.05, -0.08, -0.01, -0.19, -0.22, -0.43, 19.56, -4.88, 29.50, -9.89, 0.43, -0.55, -9.77, 0.70, -0.26, -283950.97, -165932.95, -0.09
11874, 26.26, 51.63, 0,  , 0, 400,  , 13616, 17033, 2803.29, 5274, 9212, 354.69, -85.12, -4.75, -0.09, 0.05, -0.01, -0.01, 0.44, 0.01, 17.19, -4.06, 29.69, -9.78, 1.26, 0.09, -9.77, 0.82, 0.07, -285117.41, -114609.37, -0.00
12358, 26.23, 51.61, 0,  , 0, 400,  , 13635, 17051, 2797.46, 5260, 9245, 355.31, -85.38, -175.38, -0.03, -0.06, -0.05, -0.44, 0.01, -0.34, 17.69, -3.69, 29.56, -10.22, 0.79, -0.43, -9.77, 0.78, -0.08, -336653.73, -113438.09, -0.21
12839, 26.23, 51.65, 0,  , 0, 400,  , 13660, 17075, 2791.62, 5259, 9218, 355.19, -85.44, -4.50, -0.04, -0.02, -0.02, -0.14, -0.09, 0.35, 19.88, -4.56, 25.56, -9.92, 0.67, 0.36, -9.77, 0.77, 0.01, -352849.00, -123849.34, -0.07
13323, 26.26, 51.65, 0,  , 0, 400,  , 13676, 17092, 2789.29, 5250, 9199, 355.12, -85.56, -4.38, -0.02, -0.01, -0.01, -0.10, 0.00, 0.09, 20.38, -5.06, 25.75, -9.87, 0.58, 0.27, -9.77, 0.75, 0.04, -364561.80, -123849.34, -0.05
13809, 26.23, 51.67, 0,  , 0, 400,  , 13683, 17100, 2789.87, 5251, 9180, 354.94, -85.50, -4.44, -0.05, 0.01, -0.01, -0.20, -0.16, 0.06, 19.25, -6.06, 25.75, -9.97, 0.59, 0.14, -9.77, 0.76, 0.08, -388181.40, -142745.02, -0.10
14292, 26.23, 51.64, 0,  , 0, 400,  , 13703, 17129, 2789.29, 5250, 9186, 355.12, -85.50, -4.44, -0.01, -0.03, -0.01, -1.60, 0.08, 0.19, 20.00, -5.75, 25.56, -11.37, 0.84, 0.27, -9.77, 0.75, 0.08, -574812.61, -133413.46, -0.78
14774, 26.25, 51.67, 0,  , 5189, 400,  , 13718, 17142, 2791.04, 5246, 9180, 355.19, -85.56, -4.38, 0.01, 0.01, 0.01, -0.06, 0.29, -0.05, 20.06, -6.19, 26.25, -9.84, 1.05, 0.01, -9.77, 0.75, 0.07, -581753.44, -99866.11, -0.03
15257, 26.22, 51.70, 0,  , 5074, 400,  , 13731, 17144, 2789.29, 5253, 9209, 355.38, -85.69, -4.25, -0.01, 0.02, -0.00, -0.14, -0.16, 0.00, 20.06, -5.75, 25.56, -9.90, 0.85, 0.00, -9.77, 0.73, 0.04, -598083.67, -118529.23, -0.07
15743, 26.22, 51.68, 0,  , 4899, 400,  , 13744, 17170, 2786.37, 5245, 9248, 355.38, -85.62, -4.31, 0.01, -0.03, 0.01, -0.11, 0.18, -0.24, 20.75, -5.50, 27.88, -9.89, 0.93, -0.22, -9.77, 0.74, 0.01, -611074.45, -97271.59, -0.05
16226, 26.25, 51.70, 0,  , 4743, 400,  , 13762, 17189, 2791.04, 5253, 9230, 355.31, -85.56, -4.31, 0.04, -0.00, -0.01, -0.07, -0.21, -0.41, 20.75, -6.19, 26.25, -9.85, 0.53, -0.36, -9.77, 0.74, 0.04, -619239.56, -121766.94, -0.03
16709, 26.23, 51.72, 0,  , 4648, 400,  , 13765, 17193, 2788.71, 5249, 9210, 355.19, -85.62, -4.31, 0.01, 0.01, -0.01, -0.13, -0.02, -0.26, 19.00, -5.50, 27.06, -9.91, 0.71, -0.17, -9.77, 0.74, 0.08, -634403.35, -124099.83, -0.06
17196, 26.20, 51.73, 0,  , 4507, 400,  , 13776, 17198, 2788.12, 5260, 9266, 355.38, -85.75, -4.19, 0.02, 0.01, 0.00, -0.13, 0.07, -0.27, 19.25, -6.56, 26.75, -9.91, 0.79, -0.20, -9.77, 0.72, 0.07, -649819.33, -115798.91, -0.06
17679, 26.23, 51.74, 0,  , 4382, 400,  , 13793, 17222, 2806.79, 5270, 9289, 355.50, -85.75, -4.19, -0.01, 0.01, 0.00, -0.15, -0.12, -0.34, 19.69, -5.50, 26.75, -9.93, 0.59, -0.28, -9.78, 0.71, 0.05, -667316.01, -129796.25, -0.07
18160, 26.22, 51.76, 0,  , 4237, 400,  , 13804, 17230, 2799.79, 5268, 9270, 355.38, -85.75, -4.19, -0.00, -0.01, 0.01, -0.11, 0.20, 0.00, 19.00, -5.06, 26.75, -9.89, 0.92, 0.09, -9.77, 0.71, 0.08, -680040.86, -106660.15, -0.05
18643, 26.22, 51.78, 0,  , 4026, 400,  , 13817, 17257, 2793.96, 5258, 9264, 355.69, -85.94, -3.94, 0.00, 0.00, 0.01, -0.14, -0.08, -0.18, 20.06, -5.38, 25.88, -9.93, 0.59, -0.11, -9.78, 0.68, 0.06, -696371.09, -115991.71, -0.07
19124, 26.20, 51.74, 0,  , 3916, 400,  , 13825, 17259, 2793.37, 5257, 9253, 355.62, -85.88, -4.00, 0.01, 0.00, 0.00, -0.11, -0.10, 0.03, 20.06, -4.69, 25.19, -9.89, 0.58, 0.09, -9.78, 0.69, 0.06, -709095.95, -127559.76, -0.05
19608, 26.20, 51.79, 0,  , 3875, 400,  , 13841, 17282, 2794.54, 5266, 9259, 355.75, -86.00, -3.94, 0.01, -0.00, -0.01, -0.10, -0.09, 0.07, 18.25, -5.75, 26.00, -9.91, 0.61, 0.00, -9.78, 0.67, 0.06, -720808.75, -138101.28, -0.05
20093, 26.20, 51.82, 0,  , 3655, 400,  , 13846, 17289, 2789.87, 5249, 9221, 355.75, -86.06, -3.88, -0.03, 0.00, 0.01, -0.31, 0.16, -0.16, 20.06, -5.75, 26.38, -10.10, 0.83, -0.09, -9.78, 0.66, 0.07, -757268.62, -119283.28, -0.15
20573, 26.19, 51.81, 0,  , 3570, 400,  , 13858, 17300, 2784.63, 5242, 9216, 355.69, -86.06, -3.88, -0.01, 0.01, -0.00, -0.13, 0.03, -0.06, 20.06, -5.75, 26.00, -9.92, 0.69, 0.00, -9.78, 0.66, 0.07, -772244.62, -115827.28, -0.06
21057, 26.20, 51.83, 0,  , 3474, 400,  , 13866, 17317, 2786.37, 5245, 9231, 355.88, -86.19, -3.75, -0.00, 0.00, -0.01, -0.16, 0.04, -0.17, 20.38, -5.38, 25.50, -9.94, 0.68, -0.10, -9.78, 0.64, 0.07, -790985.10, -111142.16, -0.08
21540, 26.16, 51.87, 0,  , 3339, 400,  , 13874, 17322, 2783.46, 5240, 9246, 356.06, -86.31, -3.62, 0.01, -0.03, -0.01, -0.12, -0.18, 0.03, 19.69, -5.00, 25.56, -9.90, 0.44, 0.10, -9.78, 0.62, 0.06, -804982.44, -132138.17, -0.06
22021, 26.16, 51.88, 0,  , 3309, 400,  , 13882, 17334, 2782.29, 5246, 9267, 355.62, -86.25, -3.69, -0.00, -0.01, -0.02, -0.06, 0.28, -0.02, 20.19, -5.69, 26.75, -9.90, 0.85, -0.19, -9.78, 0.63, 0.01, -811923.27, -99747.63, -0.03
22508, 26.17, 51.87, 0,  , 3168, 400,  , 13891, 17355, 2793.96, 5250, 9290, 356.25, -86.56, -3.38, 0.01, -0.01, 0.02, -0.12, 0.22, -0.44, 19.75, -5.00, 25.56, -9.91, 0.80, -0.39, -9.78, 0.57, 0.04, -826153.41, -73659.04, -0.06
22992, 26.16, 51.92, 0,  , 3020, 400,  , 13903, 17364, 2792.79, 5256, 9272, 355.88, -86.25, -3.62, 0.00, 0.02, -0.02, -0.12, -0.16, 0.11, 19.00, -4.88, 25.19, -9.91, 0.45, 0.20, -9.78, 0.62, 0.09, -840208.77, -92399.52, -0.06
23476, 26.17, 51.97, 0,  , 2988, 400,  , 13907, 17365, 2790.46, 5252, 9286, 356.00, -86.38, -3.56, -0.02, 0.01, -0.01, -0.13, 0.00, -0.18, 19.38, -5.19, 27.06, -9.92, 0.52, -0.14, -9.78, 0.60, 0.05, -855435.41, -92399.52, -0.06
23962, 26.15, 51.95, 0,  , 2974, 400,  , 13918, 17390, 2798.62, 5266, 9298, 356.12, -86.44, -3.50, 0.02, -0.03, -0.01, -0.10, -0.13, 0.00, 19.75, -5.19, 25.56, -9.88, 0.46, 0.06, -9.78, 0.60, 0.06, -867245.21, -107752.26, -0.05
24441, 26.16, 51.98, 0,  , 2955, 400,  , 13919, 17387, 2790.46, 5255, 9290, 356.31, -86.56, -3.31, -0.00, -0.01, -0.01, -0.14, 0.11, -0.06, 19.06, -5.56, 26.00, -9.93, 0.68, 0.00, -9.78, 0.57, 0.07, -883306.08, -95133.01, -0.07
24925, 26.16, 52.06, 0,  , 2854, 400,  , 13934, 17402, 2786.37, 5248, 9303, 356.44, -86.69, -3.25, -0.02, 0.02, 0.02, -0.09, 0.30, 0.15, 18.38, -5.88, 26.38, -9.88, 0.87, 0.22, -9.79, 0.56, 0.06, -893847.60, -59994.61, -0.04
25408, 26.16, 52.10, 0,  , 2833, 400,  , 13937, 17402, 2793.96, 5258, 9313, 356.56, -86.69, -3.25, -0.02, -0.01, 0.02, -0.07, 0.12, 0.08, 18.00, -5.19, 26.38, -9.86, 0.68, 0.12, -9.79, 0.56, 0.03, -902012.71, -45997.27, -0.03
25888, 26.16, 52.10, 0,  , 2738, 400,  , 13948, 17430, 2795.12, 5260, 9302, 355.88, -86.06, -3.88, 0.02, 0.02, 0.04, -0.13, -0.13, 0.12, 15.00, -3.25, 32.75, -9.92, 0.53, 0.13, -9.78, 0.66, 0.01, -916988.71, -60973.27, -0.06
26371, 26.16, 52.06, 0,  , 2720, 400,  , 13952, 17437, 2801.54, 5271, 9286, 355.44, -85.38, -175.44, -0.01, -0.04, -0.03, -0.16, -0.39, 0.06, 15.69, -4.06, 32.75, -9.94, 0.38, -0.03, -9.77, 0.77, -0.09, -935651.83, -106464.62, -0.08
26861, 26.13, 52.16, 0,  , 2678, 400,  , 13963, 17448, 2809.71, 5292, 9286, 355.56, -85.38, -4.56, 0.02, 0.00, -0.01, -0.10, 0.28, -0.21, 15.38, -3.69, 30.06, -9.88, 1.07, -0.21, -9.77, 0.78, 0.00, -947656.83, -72850.62, -0.05
27341, 26.13, 52.16, 0,  , 2591, 400,  , 13971, 17453, 2815.55, 5295, 9299, 355.62, -85.44, -4.50, -0.00, -0.00, 0.00, -0.05, 0.11, 0.19, 16.19, -4.38, 31.56, -9.83, 0.88, 0.21, -9.77, 0.77, 0.02, -953416.83, -60178.62, -0.02
27828, 26.15, 52.16, 0,  , 2567, 400,  , 13974, 17466, 2805.63, 5278, 9286, 355.88, -85.69, -175.62, -0.00, -0.01, 0.01, -0.07, 0.03, -0.01, 15.06, -4.75, 31.25, -9.89, 0.83, -0.04, -9.77, 0.73, 0.00, -961717.75, -56621.08, -0.03
28314, 26.15, 52.15, 0,  , 2577, 400,  , 13977, 17461, 2809.13, 5284, 9276, 355.88, -85.62, -4.31, 0.00, 0.01, 0.00, -0.13, 0.07, -0.14, 15.75, -4.38, 30.88, -9.91, 0.81, -0.12, -9.77, 0.74, 0.02, -977070.49, -48354.22, -0.06
28796, 26.16, 52.19, 0,  , 2540, 400,  , 13987, 17474, 2804.46, 5276, 9250, 355.88, -85.62, -4.31, -0.00, 0.00, 0.00, -0.13, 0.00, -0.07, 15.75, -4.06, 31.25, -9.91, 0.74, -0.05, -9.77, 0.74, 0.02, -992171.55, -48354.22, -0.06
29283, 26.16, 52.18, 0,  , 2468, 400,  , 13998, 17494, 2807.96, 5281, 9235, 355.81, -85.56, -4.38, -0.01, 0.00, 0.00, -0.13, 0.03, 0.11, 16.56, -4.75, 29.69, -9.91, 0.78, 0.15, -9.77, 0.74, 0.03, -1007587.53, -44796.69, -0.06
29766, 26.15, 52.20, 0,  , 2397, 400,  , 14010, 17504, 2802.13, 5272, 9281, 356.00, -85.94, -175.94, -0.07, -0.03, 0.01, -0.23, -0.12, -0.25, 17.50, -4.88, 27.50, -10.02, 0.56, -0.29, -9.78, 0.68, -0.03, -1034415.77, -58794.03, -0.11
30251, 26.15, 52.22, 0,  , 2367, 400,  , 14008, 17506, 2813.22, 5291, 9252, 355.25, -85.50, -175.50, -0.01, -0.02, -0.03, -0.05, 0.08, 0.21, 19.38, -5.75, 27.69, -9.84, 0.77, 0.33, -9.77, 0.76, 0.00, -1040296.39, -49385.03, -0.02
30740, 26.13, 52.16, 0,  , 2392, 400,  , 14022, 17518, 2805.04, 5277, 9272, 355.50, -85.62, -4.31, 0.01, -0.03, 0.01, -0.02, 0.36, 1.04, 18.38, -6.88, 26.75, -9.80, 1.11, 1.05, -9.77, 0.74, 0.01, -1042687.60, -6343.25, -0.01
31224, 26.12, 52.13, 0,  , 2323, 400,  , 14019, 17520, 2803.29, 5274, 9288, 355.62, -85.62, -175.75, -0.01, 0.02, 0.01, -0.13, 0.01, 0.04, 18.25, -6.88, 26.69, -9.91, 0.73, -0.10, -9.77, 0.72, -0.15, -1057914.24, -5171.97, -0.06
31709, 26.12, 52.19, 0,  , 2272, 400,  , 14032, 17532, 2799.21, 5277, 9269, 355.19, -85.44, -175.50, 0.03, -0.03, 0.01, -0.18, 0.53, -0.73, 19.25, -6.88, 27.75, -9.96, 1.29, -0.88, -9.77, 0.76, -0.14, -1079084.49, 57162.65, -0.09
32196, 26.13, 52.17, 0,  , 2233, 400,  , 14040, 17547, 2807.96, 5281, 9259, 355.00, -85.44, -175.44, 0.00, 0.01, -0.00, -0.14, -0.15, -0.48, 19.25, -7.56, 26.19, -9.92, 0.73, -0.48, -9.77, 0.76, -0.05, -1095686.32, 39374.98, -0.07
32681, 26.10, 52.14, 0,  , 2235, 400,  , 14038, 17541, 2800.38, 5269, 9269, 355.38, -85.62, -175.69, 0.03, 0.01, -0.01, -0.11, 0.01, 0.52, 18.56, -6.75, 27.38, -9.90, 0.81, 0.20, -9.77, 0.73, -0.09, -1108623.70, 40551.10, -0.05
33165, 26.16, 52.14, 0,  , 2191, 400,  , 14037, 17555, 2798.04, 5265, 9273, 356.00, -85.81, -175.94, 0.02, 0.04, -0.00, -0.11, -0.03, -0.41, 19.00, -6.06, 27.00, -9.89, 0.65, -0.59, -9.78, 0.69, -0.18, -1121507.78, 37037.26, -0.05
33653, 26.15, 52.09, 0,  , 2106, 400,  , 14045, 17560, 2798.04, 5256, 9279, 356.25, -85.94, -176.00, -0.04, -0.05, -0.02, -0.12, -0.17, 0.32, 19.00, -6.06, 27.00, -9.90, 0.50, 0.18, -9.78, 0.67, -0.13, -1135796.42, 16795.02, -0.06
34137, 26.12, 52.16, 0,  , 2085, 400,  , 14054, 17566, 2802.13, 5285, 9215, 355.56, -85.44, -4.44, 0.02, 0.01, 0.02, -0.89, 0.43, 0.24, 13.88, -4.50, 30.38, -10.67, 1.20, 0.29, -9.77, 0.76, 0.04, -1240040.34, 67160.06, -0.43
34623, 26.13, 52.10, 0,  , 2069, 400,  , 14060, 17574, 2803.29, 5274, 9251, 356.56, -86.00, -176.06, 0.00, -0.02, 0.02, -0.16, -0.07, 0.03, 15.19, -4.19, 29.88, -9.94, 0.60, 0.00, -9.78, 0.67, -0.04, -1258936.02, 58893.20, -0.08
35107, 26.13, 52.10, 0,  , 2030, 400,  , 14073, 17585, 2809.71, 5285, 9236, 356.31, -85.81, -4.12, -0.04, 0.02, -0.01, -0.08, -0.24, 0.13, 14.38, -4.69, 29.50, -9.86, 0.46, 0.13, -9.78, 0.71, 0.00, -1268306.26, 30782.48, -0.04
35593, 26.13, 52.10, 0,  , 1970, 400,  , 14073, 17596, 2806.21, 5279, 9244, 356.31, -85.75, -175.75, 0.01, 0.00, -0.01, -0.12, -0.11, 0.10, 14.38, -3.56, 30.69, -9.90, 0.61, 0.09, -9.77, 0.72, 0.00, -1282478.02, 17791.70, -0.06
36081, 26.10, 52.11, 0,  , 1960, 400,  , 14069, 17594, 2812.05, 5294, 9286, 356.38, -85.81, -175.81, -0.02, 0.01, -0.00, -0.07, -0.20, 0.11, 14.00, -5.06, 29.88, -9.85, 0.51, 0.09, -9.78, 0.71, -0.01, -1290813.06, -6022.70, -0.03
36562, 26.12, 52.13, 0,  , 1951, 400,  , 14084, 17605, 2815.55, 5298, 9291, 356.38, -85.75, -175.75, -0.00, 0.01, -0.01, -0.13, -0.12, 0.05, 13.69, -4.69, 29.50, -9.91, 0.59, 0.04, -9.78, 0.71, -0.01, -1305851.52, -19904.36, -0.06
37050, 26.12, 52.10, 0,  , 1907, 400,  , 14085, 17615, 2812.05, 5289, 9288, 356.38, -85.75, -175.75, -0.02, -0.01, -0.00, -0.09, -0.06, 0.10, 14.00, -4.69, 30.25, -9.87, 0.66, 0.09, -9.78, 0.72, 0.00, -1316568.00, -27048.68, -0.04
37536, 26.12, 52.12, 0,  , 1856, 400,  , 14090, 17626, 2810.88, 5287, 9278, 356.38, -85.75, -175.75, 0.00, -0.01, 0.00, -0.14, 0.04, -0.06, 13.38, -4.00, 29.88, -9.92, 0.76, -0.07, -9.78, 0.72, 0.00, -1333101.72, -22324.76, -0.07
38016, 26.13, 52.13, 0,  , 1831, 400,  , 14096, 17624, 2810.30, 5286, 9269, 356.38, -85.75, -175.75, -0.00, -0.01, 0.00, -0.11, 0.07, -0.06, 13.25, -4.69, 28.69, -9.89, 0.79, -0.06, -9.78, 0.72, 0.00, -1345773.72, -14260.76, -0.05
38504, 26.12, 52.10, 0,  , 1794, 400,  , 14102, 17643, 2812.05, 5293, 9253, 356.25, -85.69, -4.25, 0.02, 0.02, -0.01, -0.11, 0.19, 0.02, 14.00, -4.69, 30.69, -9.89, 0.93, 0.05, -9.77, 0.73, 0.03, -1358871.64, 8362.92, -0.05
38990, 26.09, 52.14, 0,  , 1796, 400,  , 14107, 17647, 2807.96, 5277, 9264, 356.56, -85.81, -175.81, 0.00, 0.00, -0.00, -0.14, 0.11, 0.01, 16.56, -5.00, 29.06, -9.92, 0.81, 0.00, -9.78, 0.70, 0.00, -1375405.36, 21353.70, -0.07
39473, 26.10, 52.12, 0,  , 1746, 400,  , 14102, 17642, 2803.29, 5274, 9259, 356.44, -85.81, -4.12, 0.01, -0.01, -0.01, -0.13, -0.15, 0.34, 15.50, -5.00, 26.75, -9.90, 0.55, 0.43, -9.78, 0.71, 0.00, -1390569.14, 3857.03, -0.06
39962, 26.09, 52.08, 0,  , 1713, 400,  , 14115, 17653, 2803.29, 5274, 9276, 356.50, -85.81, -175.81, -0.00, 0.04, -0.03, -0.19, -0.13, -0.24, 17.00, -7.06, 23.06, -9.97, 0.57, -0.33, -9.78, 0.70, -0.09, -1413285.64, -11685.84, -0.09
40446, 26.09, 52.16, 0,  , 1686, 400,  , 14117, 17661, 2801.54, 5274, 9308, 356.75, -85.81, -175.88, -0.03, -0.04, -0.02, -0.13, -0.07, -0.21, 17.19, -4.50, 24.88, -9.91, 0.61, -0.35, -9.78, 0.69, -0.14, -1428512.28, -19884.80, -0.06
40930, 26.09, 52.17, 0,  , 1642, 400,  , 14116, 17672, 2803.29, 5274, 9301, 356.44, -85.75, -175.81, 0.03, -0.00, 0.02, -0.09, 0.24, -0.38, 16.06, -4.06, 25.38, -9.87, 0.96, -0.53, -9.77, 0.71, -0.14, -1439053.80, 8225.92, -0.04
41416, 26.09, 52.22, 0,  , 1639, 400,  , 14120, 17669, 2805.63, 5278, 9285, 356.50, -85.75, -175.81, 0.00, 0.01, -0.01, -0.17, -0.22, -0.04, 14.88, -6.00, 27.25, -9.95, 0.48, -0.15, -9.78, 0.71, -0.11, -1459130.46, -17755.64, -0.08
41899, 26.10, 52.22, 0,  , 1614, 400,  , 14128, 17677, 2806.21, 5279, 9297, 356.50, -85.69, -175.81, 0.04, -0.00, -0.00, -0.11, 0.07, 0.00, 14.19, -5.56, 24.56, -9.89, 0.79, -0.12, -9.77, 0.71, -0.13, -1471961.35, -9590.52, -0.05
42384, 26.07, 52.26, 0,  , 1605, 400,  , 14127, 17678, 2809.13, 5284, 9308, 356.56, -85.75, -175.81, 0.00, -0.01, 0.00, -0.13, 0.12, 0.09, 17.06, -5.56, 23.06, -9.91, 0.83, -0.02, -9.78, 0.70, -0.12, -1487250.98, 4522.98, -0.06
42869, 26.06, 52.24, 0,  , 1501, 400,  , 14145, 17693, 2807.38, 5290, 9322, 356.62, -85.75, -175.81, 0.01, 0.00, -0.01, -0.10, 0.22, 0.12, 19.56, -5.56, 22.56, -9.88, 0.93, 0.02, -9.78, 0.70, -0.10, -1499012.23, 30397.73, -0.05
43355, 26.09, 52.28, 0,  , 1517, 400,  , 14148, 17707, 2810.30, 5291, 9347, 356.69, -85.81, -175.88, -0.02, 0.02, -0.00, -0.11, -0.10, -0.01, 19.56, -5.19, 24.88, -9.88, 0.59, -0.10, -9.78, 0.69, -0.13, -1512003.01, 18587.93, -0.05
43841, 26.07, 52.27, 0,  , 1459, 400,  , 14148, 17712, 2807.38, 5281, 9340, 356.62, -85.75, -175.88, -0.01, 0.01, -0.01, -0.10, 0.00, 0.01, 18.88, -5.56, 23.00, -9.88, 0.70, -0.14, -9.78, 0.70, -0.16, -1523812.81, 18587.93, -0.05
44326, 26.09, 52.25, 0,  , 1425, 400,  , 14150, 17715, 2805.04, 5277, 9356, 356.88, -85.81, -176.00, 0.01, 0.02, 0.00, -0.21, 0.21, -0.90, 19.88, -5.19, 22.56, -9.99, 0.89, -1.10, -9.78, 0.68, -0.20, -1548511.43, 43286.55, -0.10
44811, 26.09, 52.27, 0,  , 1452, 400,  , 14148, 17714, 2798.62, 5266, 9331, 356.94, -85.81, -176.00, -0.01, -0.02, -0.00, -0.13, -0.21, -0.49, 18.75, -4.50, 23.75, -9.91, 0.46, -0.69, -9.78, 0.67, -0.20, -1563801.06, 18587.93, -0.06
45298, 26.09, 52.28, 0,  , 1365, 400,  , 14154, 17718, 2819.64, 5304, 9307, 356.69, -85.81, -4.06, -0.01, -0.01, 0.02, -0.05, -0.14, 0.74, 12.75, -5.00, 28.50, -9.85, 0.58, 0.81, -9.78, 0.69, 0.14, -1569730.28, 1986.10, -0.02
45781, 26.07, 52.25, 0,  , 1379, 400,  , 14158, 17732, 2822.56, 5293, 9346, 357.38, -86.06, -176.06, 0.00, -0.01, 0.00, -0.13, -0.20, -0.18, 11.75, -5.06, 28.25, -9.91, 0.45, -0.21, -9.78, 0.66, -0.03, -1584894.07, -21342.80, -0.06
46268, 26.06, 52.26, 0,  , 1374, 400,  , 14163, 17735, 2817.30, 5298, 9295, 356.94, -85.81, -4.12, 0.02, 0.01, -0.00, -0.14, -0.05, 0.05, 11.75, -4.38, 28.00, -9.92, 0.66, 0.07, -9.78, 0.71, 0.01, -1601495.90, -27272.03, -0.07
46754, 26.07, 52.22, 0,  , 1336, 400,  , 14165, 17741, 2817.89, 5299, 9317, 356.94, -85.75, -175.75, 0.01, -0.01, 0.00, -0.12, -0.08, 0.00, 11.75, -5.06, 28.38, -9.90, 0.63, 0.00, -9.77, 0.72, 0.00, -1615667.66, -36719.87, -0.06
47237, 26.07, 52.24, 0,  , 1311, 400,  , 14165, 17745, 2823.73, 5306, 9340, 356.94, -85.69, -175.69, 0.00, -0.00, -0.01, -0.12, -0.10, -0.03, 12.75, -5.06, 28.00, -9.90, 0.62, -0.04, -9.77, 0.72, 0.00, -1629665.00, -48384.32, -0.06
47722, 26.06, 52.28, 0,  , 1284, 400,  , 14176, 17758, 2821.98, 5301, 9310, 357.00, -85.75, -175.75, 0.01, 0.00, -0.00, -0.12, -0.09, 0.01, 12.06, -5.38, 28.25, -9.90, 0.62, 0.00, -9.77, 0.72, 0.00, -1643778.50, -58969.44, -0.06
48209, 26.06, 52.23, 0,  , 1279, 400,  , 14171, 17768, 2816.14, 5296, 9286, 356.94, -85.69, -175.69, 0.00, 0.00, -0.01, -0.11, -0.11, 0.03, 12.75, -5.06, 27.56, -9.89, 0.61, 0.02, -9.77, 0.72, 0.00, -1656822.79, -72013.74, -0.05
48691, 26.06, 52.22, 0,  , 1294, 400,  , 14173, 17758, 2813.80, 5292, 9288, 356.94, -85.69, -175.69, -0.02, 0.01, -0.01, -0.14, -0.19, 0.15, 9.88, -8.25, 25.88, -9.92, 0.53, 0.11, -9.77, 0.72, -0.04, -1673085.47, -94084.52, -0.07
49178, 26.06, 52.24, 0,  , 1275, 400,  , 14176, 17762, 2805.63, 5278, 9314, 357.00, -85.75, -175.81, 0.03, -0.03, 0.04, -0.11, 0.18, 0.12, 9.69, -9.06, 26.19, -9.93, 0.88, 0.03, -9.77, 0.71, -0.11, -1686129.77, -72739.31, -0.05
49663, 26.07, 52.24, 0,  , 1226, 400,  , 14187, 17781, 2808.55, 5280, 9306, 357.50, -86.06, -176.06, 0.00, 0.01, -0.01, -0.12, -0.50, 0.23, 9.56, -9.50, 26.19, -9.90, 0.15, 0.14, -9.78, 0.66, -0.08, -1700243.27, -131545.56, -0.06
50144, 26.07, 52.21, 0,  , 1226, 400,  , 14179, 17784, 2809.13, 5286, 9287, 356.94, -85.50, -175.50, -0.01, -0.01, -0.04, -0.13, -0.18, 0.01, 9.69, -9.00, 25.69, -9.91, 0.57, -0.03, -9.77, 0.76, -0.05, -1715281.73, -152368.05, -0.06
50632, 26.05, 52.20, 0,  , 1219, 400,  , 14189, 17786, 2813.80, 5292, 9281, 356.31, -85.06, -175.06, 0.00, 0.00, -0.01, -0.15, -0.06, 0.15, 10.69, -9.38, 26.50, -9.92, 0.77, 0.13, -9.77, 0.83, -0.01, -1733142.53, -159512.37, -0.07
51128, 26.06, 52.19, 0,  , 1199, 400,  , 14196, 17791, 2809.71, 5285, 9305, 357.19, -85.50, -175.50, -0.01, 0.01, -0.03, -0.08, -0.07, 0.26, 9.69, -9.00, 27.19, -9.85, 0.68, 0.24, -9.77, 0.76, -0.01, -1742983.17, -168122.93, -0.04
51610, 26.06, 52.19, 0,  , 1217, 400,  , 14193, 17795, 2814.38, 5299, 9332, 357.62, -85.69, -175.75, -0.02, -0.04, 0.00, -0.09, 0.19, 0.13, 9.38, -9.00, 25.75, -9.87, 0.91, 0.11, -9.77, 0.72, -0.01, -1753437.75, -146052.15, -0.04
52097, 26.06, 52.20, 0,  , 1179, 400,  , 14193, 17807, 2819.06, 5296, 9329, 357.56, -85.75, -175.75, -0.04, -0.00, 0.00, -0.09, -0.25, -0.04, 8.19, -8.19, 25.69, -9.87, 0.46, -0.07, -9.77, 0.72, -0.02, -1764110.36, -175698.27, -0.04
52579, 26.06, 52.26, 0,  , 1206, 400,  , 14199, 17804, 2817.30, 5298, 9323, 357.25, -85.62, -4.31, 0.01, 0.01, -0.01, -0.10, -0.13, -0.03, 10.38, -8.88, 25.75, -9.88, 0.60, -0.02, -9.77, 0.74, 0.00, -1775726.56, -190799.33, -0.05
53212, 26.06, 52.19, 0,  , 1166, 400,  , 14209, 17823, 2812.63, 5290, 9322, 357.56, -85.62, -175.69, 0.04, 0.00, -0.01, -0.13, -0.28, -0.02, 9.06, -9.25, 26.56, -9.91, 0.45, -0.08, -9.77, 0.73, -0.05, -1801771.34, -246895.79, -0.08
53699, 26.05, 52.20, 0,  , 1173, 400,  , 14209, 17824, 2814.97, 5292, 9342, 357.94, -85.81, -175.81, 0.01, 0.01, -0.00, -0.09, 0.20, 0.14, 9.06, -7.38, 27.00, -9.87, 0.91, 0.09, -9.78, 0.71, -0.05, -1812443.95, -223178.89, -0.04
54183, 26.06, 52.21, 0,  , 1141, 400,  , 14198, 17818, 2817.30, 5288, 9371, 358.44, -86.19, -176.19, -0.04, -0.02, 0.02, -0.18, -0.19, -0.06, 9.56, -7.38, 26.56, -9.97, 0.45, -0.12, -9.78, 0.64, -0.06, -1833526.99, -245433.21, -0.09
54667, 26.05, 52.23, 0,  , 1126, 400,  , 14211, 17839, 2814.38, 5293, 9350, 358.06, -86.06, -176.06, -0.01, 0.03, -0.02, -0.14, -0.39, 0.05, 9.88, -7.75, 27.00, -9.93, 0.13, 0.03, -9.78, 0.66, -0.04, -1849924.91, -291113.13, -0.07
55156, 26.05, 52.25, 0,  , 1133, 400,  , 14216, 17838, 2817.89, 5299, 9350, 357.62, -85.56, -175.62, -0.10, -0.02, -0.05, -0.12, -0.29, 0.10, 11.69, -3.75, 28.75, -9.90, 0.45, 0.00, -9.77, 0.74, -0.11, -1864272.17, -325785.67, -0.06
55639, 26.05, 52.22, 0,  , 1102, 400,  , 14217, 17841, 2819.64, 5310, 9345, 357.75, -85.69, -175.75, -0.14, 0.00, -0.03, -0.23, -0.16, -0.19, 11.56, -3.50, 28.69, -10.01, 0.55, -0.31, -9.77, 0.72, -0.12, -1891100.40, -344448.79, -0.11
56126, 26.06, 52.22, 0,  , 1111, 400,  , 14210, 17840, 2823.14, 5309, 9333, 357.38, -85.69, -175.69, 0.02, 0.01, -0.00, -0.09, 0.11, 0.04, 12.19, -4.19, 28.25, -9.86, 0.85, 0.00, -9.77, 0.73, -0.05, -1901773.01, -331404.50, -0.04
56611, 26.05, 52.26, 0,  , 1089, 400,  , 14221, 17850, 2821.39, 5305, 9348, 357.62, -85.81, -175.81, -0.00, -0.00, 0.01, -0.11, 0.15, -0.01, 12.19, -3.75, 27.88, -9.91, 0.86, -0.08, -9.78, 0.70, -0.06, -1914710.38, -313762.62, -0.05
57096, 26.03, 52.21, 0,  , 1084, 400,  , 14223, 17858, 2821.98, 5306, 9342, 357.62, -85.81, -175.81, -0.00, -0.00, 0.00, -0.10, 0.02, -0.07, 12.19, -3.06, 29.00, -9.88, 0.73, -0.14, -9.78, 0.71, -0.06, -1926471.63, -311410.37, -0.05
57582, 26.05, 52.21, 0,  , 1063, 400,  , 14222, 17857, 2821.98, 5306, 9351, 357.56, -85.81, -175.81, -0.00, -0.00, 0.00, -0.10, 0.05, -0.05, 12.19, -3.75, 28.25, -9.88, 0.77, -0.11, -9.78, 0.71, -0.06, -1938232.88, -305529.75, -0.05
58063, 26.03, 52.18, 0,  , 1067, 400,  , 14224, 17872, 2820.81, 5305, 9345, 357.56, -85.81, -175.81, 0.00, 0.00, -0.00, -0.11, -0.01, -0.02, 12.19, -3.75, 27.88, -9.89, 0.69, -0.09, -9.78, 0.71, -0.06, -1950957.74, -306686.55, -0.05
58552, 26.05, 52.22, 0,  , 1081, 400,  , 14225, 17867, 2822.56, 5308, 9348, 357.56, -85.81, -175.81, 0.00, -0.00, -0.00, -0.11, 0.05, 0.01, 11.88, -4.19, 27.50, -9.89, 0.76, -0.05, -9.78, 0.71, -0.06, -1964109.39, -300708.53, -0.05
59037, 26.03, 52.22, 0,  , 1069, 400,  , 14225, 17856, 2827.23, 5315, 9352, 357.56, -85.81, -175.81, -0.00, 0.00, -0.00, -0.11, 0.05, 0.00, 11.19, -3.75, 27.50, -9.89, 0.77, -0.05, -9.78, 0.71, -0.06, -1977046.77, -294827.90, -0.05
59521, 26.03, 52.23, 0,  , 1009, 400,  , 14234, 17882, 2820.81, 5304, 9348, 357.56, -85.81, -175.81, 0.00, -0.00, -0.00, -0.11, -0.04, -0.04, 12.19, -3.50, 28.25, -9.89, 0.67, -0.11, -9.78, 0.71, -0.06, -1989930.85, -299513.02, -0.05
60008, 26.03, 52.25, 0,  , 1029, 400,  , 14235, 17877, 2824.90, 5311, 9353, 357.56, -85.81, -175.81, 0.00, 0.00, 0.00, -0.12, 0.01, 0.01, 11.56, -4.19, 27.88, -9.90, 0.72, -0.05, -9.78, 0.71, -0.06, -2004160.99, -298327.18, -0.06
60495, 26.06, 52.27, 0,  , 1005, 400,  , 14240, 17891, 2821.98, 5308, 9355, 357.56, -85.81, -175.81, 0.00, -0.01, 0.00, -0.10, 0.01, -0.06, 13.00, -3.50, 28.25, -9.88, 0.72, -0.12, -9.78, 0.71, -0.06, -2016019.44, -297141.33, -0.05
60978, 26.05, 52.23, 0,  , 1027, 400,  , 14236, 17879, 2821.39, 5306, 9343, 357.56, -85.81, -175.81, 0.00, 0.00, -0.00, -0.11, 0.00, -0.02, 12.19, -3.06, 26.69, -9.89, 0.70, -0.09, -9.78, 0.71, -0.06, -2028850.33, -297141.33, -0.05
61462, 26.03, 52.24, 0,  , 999, 400,  , 14239, 17891, 2823.73, 5309, 9349, 357.56, -85.81, -175.81, 0.00, -0.00, -0.00, -0.11, 0.06, 0.00, 12.19, -3.75, 28.25, -9.88, 0.75, -0.07, -9.78, 0.71, -0.06, -2041734.41, -290113.65, -0.05
61950, 26.05, 52.27, 0,  , 974, 400,  , 14248, 17902, 2827.23, 5315, 9347, 357.56, -85.81, -175.81, -0.01, -0.01, 0.00, -0.11, 0.02, 0.00, 11.56, -3.75, 28.25, -9.89, 0.73, -0.05, -9.78, 0.71, -0.06, -2054832.33, -287732.21, -0.05
62436, 26.06, 52.29, 0,  , 983, 400,  , 14248, 17898, 2830.74, 5317, 9379, 357.56, -85.81, -175.81, -0.00, -0.00, 0.00, -0.13, -0.04, -0.07, 25.06, -8.00, 55.69, -9.89, 0.65, -0.07, -9.78, 0.71, -0.06, -2070185.07, -292456.13, -0.06
62923, 26.03, 52.24, 0,  , 957, 400,  , 14242, 17899, 2827.23, 5316, 9375, 357.56, -85.81, -175.81, 0.01, 0.00, -0.00, -0.13, -0.01, -0.08, 26.19, -6.88, 54.50, -9.91, 0.69, -0.15, -9.78, 0.71, -0.06, -2085601.06, -293641.98, -0.06
63409, 26.03, 52.27, 0,  , 961, 400,  , 14250, 17911, 2821.98, 5306, 9334, 357.56, -85.81, -175.81, -0.00, 0.00, 0.00, -0.12, -0.04, -0.06, 25.06, -7.25, 54.50, -9.90, 0.67, -0.12, -9.78, 0.71, -0.06, -2099772.82, -298365.90, -0.06
63892, 26.05, 52.27, 0,  , 919, 400,  , 14248, 17916, 2824.90, 5311, 9335, 357.56, -85.81, -175.81, 0.00, 0.00, -0.00, -0.11, 0.01, 0.04, 25.38, -6.19, 55.25, -9.89, 0.72, -0.02, -9.78, 0.71, -0.06, -2112603.71, -297199.45, -0.05
64378, 26.05, 52.26, 0,  , 945, 400,  , 14247, 17916, 2826.65, 5314, 9359, 357.56, -85.81, -175.81, -0.00, -0.01, 0.00, -0.12, 0.03, 0.02, 25.75, -6.56, 55.25, -9.87, 0.79, -0.02, -9.78, 0.71, -0.06, -2126775.47, -293656.51, -0.06
64863, 26.03, 52.29, 0,  , 938, 400,  , 14256, 17923, 2824.90, 5317, 9343, 357.56, -85.81, -175.81, -0.00, -0.00, 0.00, -0.11, -0.01, 0.00, 25.38, -6.88, 54.50, -9.89, 0.69, -0.07, -9.78, 0.71, -0.06, -2139712.85, -294832.64, -0.05
65349, 26.03, 52.31, 0,  , 931, 400,  , 14253, 17924, 2828.40, 5312, 9351, 357.56, -85.81, -175.81, 0.01, 0.00, 0.00, -0.12, 0.01, 0.00, 25.75, -7.25, 54.50, -9.90, 0.72, -0.07, -9.78, 0.71, -0.06, -2153884.61, -293651.66, -0.06
65832, 26.03, 52.31, 0,  , 902, 400,  , 14258, 17925, 2825.48, 5312, 9357, 357.56, -85.81, -175.81, -0.00, 0.01, 0.00, -0.13, 0.07, 0.00, 25.06, -6.19, 54.06, -9.90, 0.77, -0.07, -9.78, 0.71, -0.06, -2169048.39, -285486.54, -0.06
66317, 26.05, 52.34, 0,  , 888, 400,  , 14258, 17927, 2827.82, 5316, 9355, 357.56, -85.81, -175.81, -0.00, 0.00, 0.00, -0.13, 0.03, -0.02, 25.38, -8.38, 54.50, -9.91, 0.74, -0.09, -9.78, 0.71, -0.06, -2184338.01, -281958.17, -0.06
66804, 26.03, 52.32, 0,  , 888, 400,  , 14259, 17948, 2831.32, 5318, 9359, 357.56, -85.81, -175.81, -0.01, 0.00, 0.00, -0.11, 0.02, 0.01, 25.38, -7.69, 56.38, -9.89, 0.73, -0.04, -9.78, 0.71, -0.06, -2197382.31, -279586.48, -0.05
67290, 26.02, 52.36, 0,  , 878, 400,  , 14267, 17941, 2832.49, 5325, 9366, 357.56, -85.81, -175.81, -0.00, 0.00, 0.00, -0.11, 0.00, -0.01, 25.06, -7.69, 55.25, -9.89, 0.71, -0.08, -9.78, 0.71, -0.06, -2210373.09, -279586.48, -0.05
67772, 26.03, 52.37, 0,  , 885, 400,  , 14266, 17941, 2836.00, 5328, 9371, 357.56, -85.81, -175.81, -0.00, -0.00, -0.00, -0.12, 0.04, 0.04, 25.38, -8.00, 54.88, -9.90, 0.75, -0.02, -9.78, 0.71, -0.06, -2224312.53, -274940.00, -0.06
68258, 26.02, 52.34, 0,  , 869, 400,  , 14268, 17950, 2833.66, 5326, 9370, 357.56, -85.81, -175.81, -0.00, 0.00, 0.00, -0.11, 0.02, 0.03, 24.75, -6.56, 54.06, -9.89, 0.67, 0.00, -9.78, 0.71, -0.06, -2237303.31, -272578.04, -0.05
68745, 26.03, 52.36, 0,  , 854, 400,  , 14273, 17950, 2831.91, 5323, 9369, 357.56, -85.81, -175.81, -0.00, 0.00, 0.00, -0.10, -0.01, 0.00, 25.38, -5.75, 54.50, -9.88, 0.69, -0.07, -9.78, 0.71, -0.06, -2249161.76, -273763.88, -0.05
69227, 26.02, 52.37, 0,  , 860, 400,  , 14270, 17962, 2832.49, 5334, 9389, 357.56, -85.81, -175.81, -0.01, 0.00, 0.00, -0.09, -0.03, 0.00, 25.75, -7.25, 55.25, -9.87, 0.67, -0.05, -9.78, 0.71, -0.06, -2259616.34, -277248.74, -0.04
69714, 26.05, 52.39, 0,  , 846, 400,  , 14273, 17964, 2839.50, 5328, 9379, 357.56, -85.81, -175.81, 0.00, 0.01, 0.00, -0.11, 0.01, -0.01, 25.38, -6.88, 54.50, -9.89, 0.72, -0.07, -9.78, 0.71, -0.06, -2272660.63, -276062.90, -0.05
70196, 26.00, 52.38, 0,  , 827, 400,  , 14277, 17972, 2826.65, 5314, 9358, 357.56, -85.81, -175.81, 0.01, 0.00, 0.00, -0.10, -0.01, 0.03, 25.75, -8.00, 54.50, -9.88, 0.69, -0.02, -9.78, 0.71, -0.06, -2284276.83, -277224.52, -0.05
70682, 26.03, 52.42, 0,  , 825, 400,  , 14277, 17977, 2824.90, 5311, 9354, 357.56, -85.81, -175.81, 0.00, -0.00, -0.00, -0.11, -0.03, 0.01, 25.38, -7.25, 55.25, -9.89, 0.67, -0.08, -9.78, 0.71, -0.06, -2297267.61, -280767.46, -0.05
71171, 26.03, 52.42, 0,  , 818, 400,  , 14269, 17964, 2826.06, 5313, 9359, 357.56, -85.81, -175.81, -0.00, 0.00, 0.00, -0.14, -0.07, 0.00, 25.38, -7.25, 55.69, -9.92, 0.63, -0.05, -9.78, 0.71, -0.06, -2314006.08, -289136.69, -0.07
71654, 26.03, 52.44, 0,  , 795, 400,  , 14280, 17976, 2827.82, 5318, 9361, 357.62, -85.81, -175.81, -0.01, -0.00, 0.00, -0.12, 0.03, -0.01, 26.88, -6.88, 54.88, -9.90, 0.78, -0.10, -9.78, 0.71, -0.06, -2328003.42, -285637.36, -0.06
72143, 26.03, 52.43, 0,  , 792, 400,  , 14283, 17978, 2828.40, 5310, 9366, 357.62, -85.81, -175.81, -0.00, -0.00, 0.00, -0.13, 0.04, -0.02, 25.06, -6.88, 55.25, -9.91, 0.75, -0.09, -9.78, 0.71, -0.06, -2343546.29, -280854.94, -0.06
72629, 26.03, 52.43, 0,  , 792, 400,  , 14280, 17973, 2829.57, 5319, 9369, 357.56, -85.81, -175.81, -0.00, -0.01, 0.01, -0.13, 0.10, 0.00, 25.75, -6.88, 54.50, -9.91, 0.81, -0.07, -9.78, 0.71, -0.06, -2358899.03, -269045.14, -0.06
73113, 26.00, 52.45, 0,  , 775, 400,  , 14278, 17985, 2826.65, 5314, 9362, 357.62, -85.81, -175.81, 0.01, 0.02, -0.01, -0.12, -0.08, -0.06, 15.19, -3.50, 33.19, -9.90, 0.62, -0.13, -9.78, 0.71, -0.07, -2372954.39, -278415.38, -0.06
73597, 26.03, 52.48, 0,  , 781, 400,  , 14290, 17992, 2824.31, 5313, 9351, 357.50, -85.75, -175.75, -0.01, -0.01, -0.00, -0.12, 0.07, 0.08, 15.38, -3.56, 34.19, -9.89, 0.75, 0.01, -9.77, 0.71, -0.07, -2387009.75, -270216.42, -0.06
74086, 26.03, 52.46, 0,  , 757, 400,  , 14286, 17997, 2821.39, 5307, 9340, 357.50, -85.75, -175.75, 0.00, -0.01, 0.00, -0.11, 0.10, 0.06, 16.19, -3.19, 33.00, -9.89, 0.82, 0.00, -9.77, 0.71, -0.07, -2400161.40, -258260.37, -0.05
74572, 26.03, 52.45, 0,  , 760, 400,  , 14285, 17997, 2820.81, 5304, 9336, 357.06, -85.50, -175.56, 0.07, -0.00, -0.03, -0.02, 0.51, -0.48, 17.69, -5.00, 30.06, -9.80, 1.26, -0.59, -9.77, 0.75, -0.11, -2402523.36, -198030.39, -0.01
75055, 26.05, 52.44, 0,  , 739, 400,  , 14295, 18007, 2815.55, 5295, 9371, 357.38, -85.88, -175.94, -0.08, -0.03, 0.02, -0.20, -0.04, -0.17, 20.75, -7.25, 26.56, -9.98, 0.64, -0.29, -9.78, 0.69, -0.11, -2425852.26, -202696.17, -0.10
75549, 26.03, 52.50, 0,  , 747, 400,  , 14288, 18006, 2820.22, 5303, 9310, 356.50, -85.81, -4.06, 0.07, 0.00, 0.05, -0.13, 0.94, -0.65, 21.38, -8.25, 27.75, -9.91, 1.64, -0.58, -9.78, 0.70, 0.07, -2441714.60, -87999.25, -0.06
76034, 26.02, 52.45, 0,  , 727, 400,  , 14294, 18010, 2816.14, 5297, 9293, 356.25, -85.94, -4.00, -0.02, 0.03, -0.01, -0.13, -0.12, -0.06, 21.38, -8.00, 26.00, -9.93, 0.46, 0.04, -9.78, 0.68, 0.08, -2457004.23, -102112.75, -0.06
76521, 26.05, 52.46, 0,  , 728, 400,  , 14299, 18016, 2816.14, 5294, 9298, 356.06, -85.81, -175.81, -0.06, 0.04, -0.01, -0.07, -0.66, 0.28, 19.75, -8.25, 26.25, -9.85, 0.04, 0.28, -9.78, 0.71, 0.00, -2465305.14, -180378.52, -0.03
77002, 26.02, 52.50, 0,  , 728, 400,  , 14299, 18017, 2812.05, 5289, 9287, 355.62, -85.56, -175.56, -0.09, -0.01, -0.04, -0.13, -0.41, -0.06, 21.69, -8.00, 26.38, -9.91, 0.34, -0.11, -9.77, 0.75, -0.05, -2480343.61, -227807.53, -0.06
77488, 26.02, 52.46, 0,  , 727, 400,  , 14285, 18014, 2809.71, 5285, 9299, 355.69, -85.62, -175.62, -0.03, 0.02, 0.01, -0.14, 0.06, -0.14, 22.19, -8.25, 25.56, -9.92, 0.62, -0.02, -9.77, 0.74, -0.04, -2496877.33, -220721.65, -0.07
77974, 26.02, 52.48, 0,  , 713, 400,  , 14299, 18019, 2807.96, 5281, 9288, 355.25, -85.44, -175.44, -0.01, -0.01, 0.01, -0.10, 0.08, -0.11, 22.06, -8.69, 26.06, -9.88, 0.85, -0.17, -9.77, 0.77, -0.05, -2508687.13, -211273.81, -0.05
78456, 26.00, 52.53, 0,  , 705, 400,  , 14304, 18023, 2809.71, 5285, 9273, 355.25, -85.50, -4.44, 0.03, 0.02, 0.03, -0.11, 0.27, 0.03, 20.69, -9.00, 24.25, -9.89, 1.04, 0.05, -9.77, 0.76, 0.02, -2521464.95, -179910.07, -0.05
78944, 26.03, 52.53, 0,  , 686, 400,  , 14301, 18035, 2814.38, 5292, 9264, 355.31, -85.44, -4.50, -0.00, 0.01, -0.02, -0.13, -0.19, 0.68, 21.50, -8.69, 26.00, -9.90, 0.57, 0.76, -9.77, 0.77, 0.08, -2536944.31, -202533.74, -0.06
79430, 26.03, 52.55, 0,  , 682, 400,  , 14302, 18029, 2806.79, 5280, 9272, 354.94, -85.19, -4.69, -0.06, 0.01, 0.03, -0.08, 0.03, -0.20, 20.69, -8.25, 26.69, -9.85, 0.84, -0.17, -9.77, 0.81, 0.03, -2546392.15, -198990.80, -0.04
79912, 26.03, 52.57, 0,  , 671, 400,  , 14303, 18036, 2807.96, 5282, 9265, 354.69, -85.00, -4.94, -0.05, -0.01, -0.01, -0.22, -0.69, -1.01, 21.75, -8.88, 27.06, -9.99, 0.19, -0.80, -9.76, 0.85, 0.01, -2571947.79, -279142.58, -0.11
80400, 26.03, 52.59, 0,  , 675, 400,  , 14298, 18031, 2811.46, 5291, 9256, 354.69, -85.00, -4.94, 0.03, 0.01, 0.00, -0.13, 0.29, -0.05, 21.88, -8.88, 26.25, -9.90, 1.14, 0.03, -9.76, 0.84, 0.08, -2587427.14, -244611.71, -0.06
80888, 26.00, 52.58, 0,  , 653, 400,  , 14311, 18040, 2815.55, 5295, 9259, 354.56, -84.94, -4.94, 0.03, 0.01, -0.01, -0.13, -0.05, 0.13, 20.06, -8.88, 27.50, -9.90, 0.79, 0.22, -9.76, 0.85, 0.09, -2602906.50, -250565.31, -0.06
81369, 26.03, 52.60, 0,  , 653, 400,  , 14306, 18044, 2817.30, 5298, 9335, 356.06, -85.31, -4.62, 0.10, 0.05, 0.03, -0.14, -0.14, 0.18, 15.69, -5.50, 34.38, -9.91, 0.64, 0.19, -9.77, 0.79, 0.01, -2619101.77, -266760.58, -0.07
81854, 26.02, 52.61, 0,  , 643, 400,  , 14315, 18048, 2827.82, 5316, 9390, 356.94, -85.44, -175.50, -0.00, -0.03, -0.00, -0.13, -0.28, 0.13, 16.25, -5.50, 35.25, -9.90, 0.47, 0.00, -9.77, 0.76, -0.13, -2634391.40, -299692.08, -0.06
82339, 26.02, 52.63, 0,  , 637, 400,  , 14312, 18054, 2828.99, 5318, 9357, 356.69, -85.38, -175.44, 0.02, 0.00, -0.02, -0.13, -0.20, 0.02, 15.88, -5.56, 35.38, -9.90, 0.56, -0.05, -9.77, 0.77, -0.08, -2649681.02, -323214.58, -0.06
82826, 26.03, 52.61, 0,  , 628, 400,  , 14311, 18053, 2827.82, 5311, 9369, 356.69, -85.50, -175.50, 0.00, 0.00, -0.01, -0.13, -0.03, 0.05, 15.88, -5.25, 35.25, -9.90, 0.73, -0.02, -9.77, 0.76, -0.07, -2665097.01, -326772.11, -0.06
83313, 26.05, 52.67, 0,  , 610, 400,  , 14306, 18057, 2827.82, 5314, 9358, 356.81, -85.62, -175.62, 0.00, -0.00, -0.00, -0.12, -0.04, 0.04, 16.25, -6.38, 34.50, -9.90, 0.69, -0.03, -9.77, 0.74, -0.07, -2679327.15, -331515.49, -0.06
83795, 26.02, 52.69, 0,  , 626, 400,  , 14317, 18063, 2822.56, 5307, 9351, 356.88, -85.62, -175.69, 0.00, -0.00, 0.00, -0.12, -0.01, -0.03, 15.88, -6.00, 35.38, -9.90, 0.72, -0.11, -9.77, 0.73, -0.08, -2693266.59, -332677.11, -0.06
84280, 26.05, 52.70, 0,  , 615, 400,  , 14305, 18060, 2822.56, 5307, 9348, 356.88, -85.69, -175.69, 0.01, 0.01, -0.01, -0.10, -0.05, 0.00, 15.88, -5.25, 34.88, -9.88, 0.68, -0.07, -9.77, 0.73, -0.08, -2705027.84, -338557.74, -0.05
84768, 26.02, 52.74, 0,  , 583, 400,  , 14313, 18073, 2820.22, 5295, 9329, 356.88, -85.69, -175.69, 0.00, 0.00, -0.01, -0.12, 0.02, 0.06, 15.56, -6.69, 34.88, -9.90, 0.76, -0.01, -9.77, 0.73, -0.08, -2719316.48, -336176.30, -0.06
85250, 26.02, 52.77, 0,  , 585, 400,  , 14319, 18071, 2812.63, 5290, 9333, 357.00, -85.69, -175.69, 0.00, -0.01, -0.00, -0.06, 0.03, 0.02, 16.56, -4.38, 36.50, -9.84, 0.76, -0.05, -9.77, 0.72, -0.08, -2726286.20, -332691.44, -0.03
85737, 25.99, 52.76, 0,  , 602, 400,  , 14307, 18071, 2811.46, 5290, 9325, 356.94, -85.69, -175.69, -0.01, 0.01, -0.01, -0.11, -0.06, 0.03, 15.19, -5.50, 34.19, -9.89, 0.66, -0.05, -9.77, 0.72, -0.08, -2739330.49, -339806.51, -0.05
86223, 25.99, 52.76, 0,  , 582, 400,  , 14316, 18072, 2812.63, 5290, 9316, 357.00, -85.69, -175.75, 0.01, -0.00, -0.00, -0.12, 0.14, 0.08, 16.19, -6.56, 35.56, -9.90, 0.86, 0.00, -9.77, 0.72, -0.08, -2753502.25, -323272.79, -0.06
86707, 26.00, 52.83, 0,  , 592, 400,  , 14314, 18078, 2807.96, 5282, 9317, 356.81, -85.69, -175.75, -0.01, -0.01, 0.00, -0.10, 0.03, 0.01, 15.75, -5.88, 34.75, -9.88, 0.75, -0.07, -9.77, 0.72, -0.09, -2765215.05, -319758.95, -0.05
87194, 26.05, 52.81, 0,  , 579, 400,  , 14320, 18082, 2812.63, 5289, 9280, 356.50, -85.56, -175.56, 0.21, -0.10, 0.07, 0.04, 0.43, -0.11, 15.75, -6.56, 35.19, -9.73, 1.18, -0.14, -9.77, 0.75, -0.02, -2760471.67, -268767.61, 0.02
87675, 26.03, 52.86, 0,  , 585, 400,  , 14316, 18074, 2813.80, 5294, 9292, 356.62, -85.62, -175.62, -0.02, 0.02, 0.00, -0.13, 0.00, -0.24, 14.75, -5.56, 36.38, -9.91, 0.73, -0.26, -9.77, 0.73, -0.02, -2775510.14, -268767.61, -0.06
88161, 26.00, 52.86, 0,  , 589, 400,  , 14317, 18083, 2812.05, 5289, 9280, 356.69, -85.69, -4.25, -0.08, 0.01, 0.03, -0.18, -0.03, 0.37, 15.56, -5.56, 34.69, -9.91, 0.73, 0.36, -9.77, 0.73, 0.01, -2796767.78, -272310.55, -0.09
88646, 26.03, 52.89, 0,  , 580, 400,  , 14318, 18089, 2811.46, 5288, 9280, 356.44, -85.62, -4.31, -0.13, -0.03, 0.10, -0.33, -0.21, 0.25, 16.00, -6.00, 35.19, -10.11, 0.53, 0.29, -9.77, 0.74, 0.04, -2835579.90, -297009.17, -0.16
89128, 26.00, 52.87, 0,  , 561, 400,  , 14323, 18086, 2819.64, 5302, 9268, 357.12, -85.88, -4.06, 0.08, -0.05, -0.01, -0.22, -0.10, 0.27, 16.75, -6.25, 34.69, -9.66, 0.51, 0.41, -9.78, 0.69, 0.00, -2861135.54, -308625.37, -0.11
89617, 26.03, 52.87, 0,  , 552, 400,  , 14324, 18095, 2823.73, 5309, 9267, 357.00, -85.81, -4.12, 0.00, -0.02, -0.09, -0.12, -0.19, 0.35, 16.00, -6.56, 34.25, -9.90, 0.52, 0.35, -9.78, 0.71, 0.00, -2875482.80, -331341.87, -0.06
90105, 26.03, 52.91, 0,  , 557, 400,  , 14329, 18098, 2830.15, 5313, 9285, 357.94, -85.88, -175.88, 0.07, -0.03, -0.07, 0.03, 0.31, -0.10, 16.00, -5.88, 35.25, -9.71, 0.62, 0.00, -9.78, 0.69, -0.02, -2871910.64, -294429.55, 0.01
90586, 26.03, 52.92, 0,  , 551, 400,  , 14327, 18096, 2816.72, 5297, 9246, 356.75, -85.75, -4.19, -0.02, -0.04, 0.03, -0.13, 0.63, 0.72, 17.50, -6.19, 35.19, -9.91, 1.35, 0.77, -9.77, 0.72, 0.04, -2886949.11, -221550.83, -0.06
91072, 26.02, 52.90, 0,  , 547, 400,  , 14331, 18102, 2795.71, 5261, 9292, 359.56, -87.44, -177.62, -0.04, 0.02, 0.00, -0.16, -0.32, -0.24, 15.75, -4.88, 34.38, -9.96, 0.08, -0.39, -9.79, 0.40, -0.15, -2905844.79, -259342.19, -0.08
91559, 26.03, 52.92, 0,  , 544, 400,  , 14329, 18119, 2828.99, 5302, 9301, 358.19, -86.62, -176.69, 0.09, 0.04, -0.06, -0.06, 0.58, 0.40, 16.38, -5.19, 33.25, -9.85, 1.14, 0.33, -9.79, 0.55, -0.07, -2912959.86, -190563.19, -0.03
92042, 26.03, 52.96, 0,  , 549, 400,  , 14322, 18109, 2841.26, 5344, 9482, 1.94, -86.69, -177.31, -0.05, -0.02, -0.01, -0.03, 0.73, -0.67, 15.25, -3.56, 34.19, -9.82, 1.18, -0.99, -9.79, 0.45, -0.31, -2916459.19, -105412.70, -0.01
92529, 26.00, 52.98, 0,  , 542, 400,  , 14330, 18114, 2826.06, 5326, 9334, 357.94, -86.31, -3.62, -0.01, -0.03, 0.05, -0.05, 0.51, 0.43, 16.56, -5.06, 32.38, -9.84, 1.15, 0.45, -9.78, 0.63, 0.02, -2922388.42, -44934.60, -0.02
93012, 26.03, 53.02, 0,  , 534, 400,  , 14326, 18114, 2827.82, 5316, 9362, 359.06, -86.31, -176.31, 0.06, 0.02, -0.01, -0.07, -0.17, -0.15, 16.06, -4.19, 33.25, -9.86, 0.44, -0.21, -9.78, 0.62, -0.05, -2930553.53, -64764.17, -0.03
93496, 26.03, 53.00, 0,  , 534, 400,  , 14334, 18125, 2842.43, 5341, 9381, 357.94, -85.94, -175.94, 0.01, -0.02, 0.01, -0.12, 0.03, 0.22, 15.06, -4.56, 33.25, -9.90, 0.72, 0.21, -9.78, 0.68, -0.01, -2944608.89, -61250.33, -0.06
93982, 26.03, 53.02, 0,  , 531, 400,  , 14334, 18125, 2845.93, 5335, 9371, 358.31, -86.06, -176.06, 0.01, 0.01, -0.01, -0.14, -0.15, -0.27, 15.38, -4.06, 34.38, -9.92, 0.50, -0.33, -9.78, 0.66, -0.05, -2961142.61, -78965.03, -0.07
94465, 26.03, 53.05, 0,  , 526, 400,  , 14330, 18129, 2834.24, 5323, 9322, 357.94, -85.88, -4.06, 0.02, 0.01, -0.01, -0.11, 0.07, -0.03, 15.69, -4.88, 32.50, -9.89, 0.77, -0.02, -9.78, 0.69, 0.00, -2973973.51, -70799.92, -0.05
94950, 26.05, 53.04, 0,  , 512, 400,  , 14344, 18133, 2837.17, 5341, 9332, 357.94, -85.88, -4.06, 0.00, 0.00, -0.01, -0.09, 0.15, 0.12, 15.38, -4.06, 32.75, -9.87, 0.84, 0.14, -9.78, 0.70, 0.00, -2984558.63, -53158.04, -0.04
95439, 26.02, 53.02, 0,  , 518, 400,  , 14345, 18137, 2836.58, 5331, 9309, 357.81, -85.81, -4.12, 0.01, 0.01, -0.01, -0.11, -0.03, 0.09, 15.38, -4.06, 33.75, -9.89, 0.67, 0.09, -9.78, 0.70, 0.00, -2997710.29, -56744.85, -0.05
95924, 26.03, 53.04, 0,  , 512, 400,  , 14338, 18140, 2833.08, 5325, 9318, 357.88, -85.81, -175.81, 0.00, -0.00, -0.00, -0.12, -0.01, 0.09, 14.69, -4.88, 33.38, -9.90, 0.66, 0.11, -9.78, 0.70, -0.01, -3011823.79, -57920.98, -0.06
96412, 26.02, 53.03, 0,  , 509, 400,  , 14344, 18148, 2830.15, 5319, 9311, 358.00, -85.88, -175.88, 0.01, 0.01, 0.00, -0.10, 0.01, -0.10, 15.06, -4.06, 34.06, -9.88, 0.71, -0.12, -9.78, 0.70, -0.01, -3023730.99, -56730.26, -0.05
96896, 26.03, 53.07, 0,  , 513, 400,  , 14340, 18129, 2830.74, 5322, 9321, 358.00, -85.88, -175.88, 0.00, 0.01, -0.00, -0.13, 0.15, -0.03, 15.69, -4.06, 32.56, -9.91, 0.85, -0.06, -9.78, 0.70, -0.02, -3038957.63, -39161.06, -0.06
97381, 26.03, 53.09, 0,  , 506, 400,  , 14344, 18144, 2828.40, 5317, 9319, 358.12, -85.94, -175.94, -0.00, 0.01, 0.01, -0.11, -0.06, 0.02, 15.69, -4.88, 33.38, -9.89, 0.62, 0.00, -9.78, 0.69, -0.03, -3051895.00, -46217.81, -0.05
97866, 26.02, 53.04, 0,  , 505, 400,  , 14343, 18138, 2825.48, 5312, 9310, 358.12, -85.94, -175.94, 0.00, -0.00, 0.01, -0.13, 0.04, 0.02, 14.69, -4.50, 33.38, -9.91, 0.73, 0.00, -9.78, 0.68, -0.03, -3067184.63, -41513.31, -0.06
98350, 26.05, 53.05, 0,  , 504, 400,  , 14341, 18141, 2822.56, 5307, 9312, 358.12, -85.94, -175.94, 0.00, 0.00, 0.00, -0.12, 0.01, -0.06, 15.06, -3.75, 32.19, -9.92, 0.69, -0.11, -9.78, 0.69, -0.03, -3081239.99, -40342.03, -0.06
98836, 26.02, 53.12, 0,  , 494, 400,  , 14348, 18150, 2827.82, 5313, 9294, 358.00, -85.81, -175.81, 0.00, 0.00, -0.01, -0.11, 0.01, 0.12, 16.50, -4.50, 32.88, -9.89, 0.71, 0.11, -9.78, 0.70, -0.01, -3094230.77, -39161.05, -0.05
99325, 26.00, 53.05, 0,  , 494, 400,  , 14351, 18151, 2823.73, 5308, 9308, 358.12, -85.88, -175.88, 0.00, 0.00, 0.00, -0.13, -0.08, 0.05, 16.06, -4.50, 33.38, -9.91, 0.60, 0.01, -9.78, 0.69, -0.03, -3109773.63, -48725.89, -0.06
99807, 26.03, 53.12, 0,  , 485, 400,  , 14353, 18153, 2823.73, 5309, 9304, 358.12, -85.88, -175.88, -0.00, 0.01, -0.00, -0.12, -0.02, -0.03, 15.38, -4.06, 32.88, -9.90, 0.67, -0.06, -9.78, 0.70, -0.02, -3123713.07, -51049.13, -0.06
100301, 25.99, 53.08, 0,  , 482, 400,  , 14349, 18160, 2825.48, 5312, 9301, 358.06, -85.81, -175.88, 0.00, 0.00, -0.00, -0.11, -0.02, 0.01, 16.06, -4.06, 33.38, -9.88, 0.70, 0.04, -9.78, 0.70, -0.03, -3137135.05, -53489.49, -0.05
100790, 26.05, 53.05, 0,  , 483, 400,  , 14355, 18166, 2823.73, 5310, 9297, 358.12, -85.81, -175.81, 0.01, 0.00, -0.02, -0.11, 0.02, -0.05, 16.50, -4.06, 32.88, -9.89, 0.73, -0.09, -9.78, 0.70, -0.03, -3150286.70, -51098.28, -0.05
101273, 26.00, 53.08, 0,  , 485, 400,  , 14355, 18160, 2827.82, 5310, 9288, 357.94, -85.69, -4.19, -0.03, 0.00, -0.00, -0.13, -0.11, 0.00, 15.88, -4.50, 32.88, -9.91, 0.61, 0.01, -9.77, 0.72, 0.01, -3165450.49, -63929.17, -0.06
101758, 26.03, 53.05, 0,  , 468, 400,  , 14355, 18173, 2824.90, 5311, 9281, 358.19, -85.75, -175.75, 0.00, -0.01, -0.01, -0.16, -0.06, 0.00, 16.19, -3.75, 32.06, -9.94, 0.65, -0.02, -9.78, 0.72, -0.02, -3184268.49, -70985.92, -0.08
102244, 26.02, 53.05, 0,  , 469, 400,  , 14360, 18181, 2825.48, 5312, 9292, 358.25, -85.81, -175.81, 0.01, -0.00, -0.01, -0.14, -0.13, -0.09, 14.75, -4.88, 33.69, -9.92, 0.58, -0.11, -9.78, 0.71, -0.01, -3200802.21, -86338.66, -0.07
102730, 26.00, 52.99, 0,  , 478, 400,  , 14360, 18170, 2825.48, 5321, 9274, 357.81, -85.56, -4.38, 0.00, 0.00, -0.01, -0.10, -0.04, 0.33, 15.06, -5.19, 33.19, -9.87, 0.70, 0.39, -9.77, 0.75, 0.05, -3212612.01, -91062.58, -0.05
103215, 25.99, 52.98, 0,  , 468, 400,  , 14358, 18174, 2833.08, 5327, 9269, 357.69, -85.38, -4.50, -0.00, -0.00, -0.01, -0.10, 0.23, 0.17, 16.25, -4.88, 33.69, -9.87, 1.01, 0.24, -9.77, 0.77, 0.07, -3224373.26, -64011.71, -0.05
103698, 25.99, 52.97, 0,  , 455, 400,  , 14366, 18180, 2827.23, 5312, 9247, 357.94, -85.56, -4.38, 0.01, -0.00, -0.01, -0.11, 0.12, -0.08, 15.50, -4.06, 32.75, -9.89, 0.87, -0.03, -9.77, 0.75, 0.05, -3237204.15, -50014.37, -0.05
104185, 26.00, 52.97, 0,  , 451, 400,  , 14361, 18179, 2825.48, 5312, 9265, 358.00, -85.56, -4.38, 0.00, 0.01, -0.01, -0.13, 0.09, -0.25, 15.88, -4.06, 32.50, -9.91, 0.84, -0.22, -9.77, 0.75, 0.03, -3252620.14, -39341.76, -0.06
104671, 25.97, 52.95, 0,  , 442, 400,  , 14363, 18181, 2823.14, 5308, 9253, 358.00, -85.56, -4.38, 0.01, 0.01, -0.01, -0.10, 0.03, 0.16, 14.88, -4.06, 33.69, -9.90, 0.89, 0.12, -9.77, 0.75, 0.04, -3264429.94, -35798.82, -0.05
105155, 25.99, 52.94, 0,  , 449, 400,  , 14362, 18189, 2821.39, 5306, 9273, 358.25, -85.69, -175.69, 0.00, -0.01, 0.01, -0.10, 0.15, -0.01, 14.88, -4.50, 33.25, -9.88, 0.89, -0.01, -9.77, 0.73, 0.00, -3276142.74, -18229.62, -0.05
105641, 26.02, 52.91, 0,  , 441, 400,  , 14364, 18199, 2820.22, 5314, 9272, 358.31, -85.69, -175.69, 0.00, 0.01, -0.01, -0.11, 0.06, -0.14, 15.50, -4.06, 32.75, -9.88, 0.75, -0.16, -9.77, 0.73, -0.01, -3289133.52, -11143.74, -0.05
106130, 26.03, 52.91, 0,  , 441, 400,  , 14363, 18194, 2825.48, 5312, 9259, 358.19, -85.62, -4.31, 0.01, 0.02, -0.01, -0.14, 0.12, -0.01, 15.38, -4.50, 32.06, -9.92, 0.86, 0.01, -9.77, 0.74, 0.03, -3305871.99, 3203.52, -0.07
106611, 25.99, 52.92, 0,  , 432, 400,  , 14369, 18200, 2821.39, 5305, 9252, 358.25, -85.69, -4.25, -0.01, 0.00, 0.00, -0.10, 0.11, 0.09, 16.19, -4.88, 31.69, -9.88, 0.84, 0.11, -9.77, 0.73, 0.02, -3317440.04, 15928.37, -0.05
107095, 25.99, 52.92, 0,  , 440, 400,  , 14372, 18201, 2820.22, 5303, 9271, 358.44, -85.75, -4.19, -0.02, -0.01, 0.01, -0.12, 0.04, 0.02, 15.38, -4.50, 32.88, -9.91, 0.79, 0.06, -9.78, 0.71, 0.01, -3331495.40, 20613.49, -0.06
107582, 26.00, 52.91, 0,  , 424, 400,  , 14368, 18206, 2823.14, 5312, 9276, 358.50, -85.81, -4.12, 0.01, -0.00, 0.01, -0.11, 0.05, -0.08, 16.88, -4.50, 34.00, -9.89, 0.77, -0.07, -9.78, 0.71, 0.01, -3344539.69, 26542.72, -0.05
108064, 25.99, 52.90, 0,  , 413, 400,  , 14371, 18192, 2829.57, 5315, 9282, 358.38, -85.69, -4.19, 0.01, 0.01, -0.00, -0.12, 0.04, -0.05, 15.06, -4.50, 32.88, -9.90, 0.77, -0.02, -9.77, 0.72, 0.03, -3358479.13, 31189.20, -0.06
108549, 26.00, 52.88, 0,  , 431, 400,  , 14382, 18216, 2823.14, 5308, 9278, 358.38, -85.69, -4.25, 0.02, 0.00, -0.00, -0.12, 0.17, -0.01, 15.75, -4.88, 33.69, -9.90, 0.90, 0.05, -9.77, 0.73, 0.02, -3372592.63, 51183.32, -0.06
109033, 25.97, 52.86, 0,  , 421, 400,  , 14382, 18214, 2816.14, 5296, 9265, 358.44, -85.69, -4.25, -0.00, 0.00, 0.00, -0.15, 0.12, 0.03, 15.38, -5.19, 32.06, -9.93, 0.85, 0.05, -9.77, 0.73, 0.02, -3390161.83, 65238.68, -0.07
109518, 25.99, 52.86, 0,  , 426, 400,  , 14383, 18204, 2813.22, 5291, 9273, 358.50, -85.69, -4.25, 0.00, -0.00, 0.00, -0.10, 0.00, 0.00, 15.75, -5.19, 32.50, -9.88, 0.72, 0.03, -9.77, 0.72, 0.02, -3401923.08, 65238.68, -0.05
110005, 26.00, 52.81, 0,  , 415, 400,  , 14386, 18226, 2802.13, 5258, 9218, 358.50, -85.69, -4.25, -0.00, 0.00, 0.00, -0.12, 0.01, -0.01, 15.75, -4.88, 32.75, -9.90, 0.74, 0.01, -9.77, 0.72, 0.02, -3416153.22, 66424.53, -0.06
110488, 25.97, 52.78, 0,  , 417, 400,  , 14376, 18212, 2785.21, 5235, 9156, 358.50, -85.69, -4.25, 0.00, 0.00, -0.00, -0.12, -0.08, -0.04, 15.38, -5.19, 33.25, -9.90, 0.64, -0.02, -9.77, 0.72, 0.02, -3430150.56, 57092.97, -0.06
110973, 26.00, 52.71, 0,  , 399, 400,  , 14377, 18222, 2770.63, 5218, 9128, 358.50, -85.69, -4.25, 0.00, -0.00, -0.00, -0.10, -0.02, -0.01, 15.38, -4.88, 32.50, -9.90, 0.70, -0.01, -9.77, 0.72, 0.02, -3441911.81, 54740.72, -0.05
111461, 25.99, 52.66, 0,  , 402, 400,  , 14385, 18231, 2771.80, 5220, 9124, 358.50, -85.69, -4.25, 0.01, 0.00, 0.00, -0.12, 0.01, -0.03, 15.38, -3.75, 32.06, -9.90, 0.74, -0.01, -9.77, 0.72, 0.02, -3456200.45, 55931.44, -0.06
111945, 25.99, 52.60, 0,  , 402, 400,  , 14377, 18227, 2772.38, 5215, 9130, 358.50, -85.69, -4.25, -0.01, -0.00, 0.01, -0.12, 0.00, -0.04, 15.38, -3.75, 33.19, -9.90, 0.73, -0.01, -9.77, 0.72, 0.02, -3470255.81, 55931.44, -0.06
112431, 25.99, 52.58, 0,  , 415, 400,  , 14377, 18220, 2772.38, 5220, 9133, 358.56, -85.75, -4.19, 0.01, 0.02, -0.01, -0.13, -0.07, -0.08, 15.38, -3.75, 33.25, -9.91, 0.65, -0.08, -9.77, 0.72, 0.00, -3485608.55, 47664.58, -0.06
112916, 25.99, 52.56, 0,  , 402, 400,  , 14379, 18228, 2774.13, 5224, 9134, 358.56, -85.75, -175.75, 0.01, 0.01, -0.01, -0.11, 0.07, 0.07, 14.38, -4.50, 33.25, -9.88, 0.80, 0.03, -9.77, 0.72, 0.00, -3498545.93, 55897.45, -0.05
113401, 25.97, 52.51, 0,  , 396, 400,  , 14384, 18232, 2770.05, 5217, 9133, 358.69, -85.75, -175.75, 0.00, 0.01, -0.00, -0.12, 0.12, 0.12, 15.38, -4.50, 32.50, -9.90, 0.84, 0.10, -9.78, 0.72, -0.01, -3512659.43, 70010.95, -0.06
113886, 26.00, 52.52, 0,  , 388, 400,  , 14383, 18235, 2768.30, 5214, 9136, 358.81, -85.81, -175.81, -0.00, 0.00, 0.00, -0.12, 0.11, 0.05, 16.56, -5.19, 34.00, -9.90, 0.82, 0.02, -9.78, 0.71, -0.03, -3526772.93, 82948.33, -0.06
114372, 25.99, 52.47, 0,  , 394, 400,  , 14386, 18238, 2783.46, 5228, 9168, 358.81, -85.81, -175.81, 0.00, 0.00, -0.01, -0.11, -0.11, 0.08, 15.38, -4.50, 32.06, -9.89, 0.60, 0.05, -9.78, 0.71, -0.03, -3539763.71, 69957.55, -0.05
114859, 26.02, 52.46, 0,  , 378, 400,  , 14384, 18240, 2777.05, 5226, 9172, 358.75, -85.75, -175.75, 0.00, 0.00, -0.00, -0.13, -0.01, 0.05, 15.38, -3.75, 32.88, -9.91, 0.69, 0.03, -9.78, 0.71, -0.02, -3555179.69, 68771.70, -0.06
115346, 26.00, 52.44, 0,  , 379, 400,  , 14381, 18238, 2785.79, 5244, 9176, 358.75, -85.75, -175.75, 0.01, -0.01, 0.00, -0.10, 0.12, 0.00, 15.75, -3.75, 34.00, -9.88, 0.84, -0.01, -9.78, 0.72, 0.00, -3567038.14, 83001.84, -0.05
115828, 26.02, 52.41, 0,  , 386, 400,  , 14389, 18246, 2775.30, 5226, 9156, 358.75, -85.75, -175.75, -0.00, 0.00, 0.01, -0.11, 0.12, -0.06, 15.75, -4.06, 32.88, -9.89, 0.84, -0.07, -9.78, 0.72, 0.00, -3579815.96, 96941.28, -0.05
116313, 26.02, 52.40, 0,  , 378, 400,  , 14385, 18244, 2781.13, 5228, 9141, 358.81, -85.75, -4.19, 0.00, 0.01, 0.00, -0.13, 0.04, -0.07, 15.38, -4.88, 32.88, -9.89, 0.78, -0.09, -9.77, 0.72, 0.00, -3595105.58, 101645.78, -0.06
116801, 26.02, 52.40, 0,  , 375, 400,  , 14390, 18250, 2772.97, 5214, 9120, 358.81, -85.69, -4.25, 0.01, 0.01, -0.00, -0.12, 0.00, 0.05, 15.75, -3.75, 32.88, -9.90, 0.73, 0.07, -9.77, 0.72, 0.01, -3609394.22, 101645.78, -0.06
117281, 26.00, 52.36, 0,  , 383, 400,  , 14389, 18245, 2767.72, 5215, 9116, 358.81, -85.75, -4.19, -0.00, 0.00, 0.00, -0.13, 0.02, 0.01, 15.75, -3.00, 32.88, -9.91, 0.74, 0.02, -9.77, 0.72, 0.01, -3624370.22, 103949.78, -0.06
117770, 26.02, 52.34, 0,  , 375, 400,  , 14387, 18243, 2766.56, 5211, 9119, 358.88, -85.75, -4.19, 0.00, -0.01, 0.00, -0.11, -0.03, -0.03, 15.06, -4.88, 32.06, -9.89, 0.68, -0.01, -9.78, 0.72, 0.01, -3637521.88, 100362.97, -0.05
118252, 25.99, 52.36, 0,  , 364, 400,  , 14391, 18249, 2768.30, 5214, 9119, 358.88, -85.75, -4.19, 0.00, 0.00, 0.00, -0.12, 0.07, -0.01, 15.75, -4.88, 32.88, -9.90, 0.79, 0.00, -9.78, 0.71, 0.01, -3651461.32, 108494.31, -0.06
118737, 26.02, 52.31, 0,  , 374, 400,  , 14389, 18249, 2769.47, 5224, 9125, 358.88, -85.75, -4.19, 0.00, 0.01, 0.00, -0.11, 0.03, 0.03, 15.38, -3.75, 32.50, -9.90, 0.78, 0.00, -9.78, 0.71, 0.01, -3664398.69, 112022.68, -0.05
119226, 26.03, 52.33, 0,  , 363, 400,  , 14394, 18264, 2785.21, 5247, 9174, 358.88, -85.75, -4.19, 0.01, 0.00, 0.01, -0.12, 0.02, 0.15, 15.75, -4.50, 32.88, -9.90, 0.74, 0.16, -9.78, 0.71, 0.00, -3678745.95, 114413.89, -0.06
119711, 26.00, 52.32, 0,  , 368, 400,  , 14393, 18260, 2788.71, 5249, 9188, 358.94, -85.75, -175.75, -0.01, -0.01, 0.01, -0.18, 0.05, 0.10, 15.38, -4.50, 33.25, -9.85, 0.77, 0.16, -9.78, 0.72, -0.01, -3699916.20, 120294.52, -0.09
120197, 26.02, 52.38, 0,  , 368, 400,  , 14393, 18259, 2785.79, 5244, 9173, 358.88, -85.50, -175.50, 0.10, 0.05, -0.04, -0.14, 0.30, 0.09, 14.75, -5.25, 32.75, -9.91, 1.07, 0.05, -9.77, 0.76, -0.03, -3716449.92, 155723.92, -0.07
120685, 26.00, 52.36, 0,  , 351, 400,  , 14393, 18265, 2807.96, 5282, 9394, 2.94, -85.88, -176.44, -0.08, -0.03, 0.01, -0.10, -0.18, -0.26, 14.06, -2.56, 32.25, -9.88, 0.42, -0.59, -9.78, 0.61, -0.33, -3728357.12, 134290.96, -0.05
121167, 26.00, 52.35, 0,  , 361, 400,  , 14392, 18264, 2796.29, 5268, 9216, 358.75, -85.44, -4.50, 0.07, 0.04, -0.01, -0.03, 0.39, 0.16, 14.75, -3.56, 31.06, -9.80, 1.16, 0.24, -9.77, 0.77, 0.07, -3731841.98, 179594.14, -0.01
121652, 26.00, 52.34, 0,  , 350, 400,  , 14398, 18264, 2807.96, 5285, 9282, 359.81, -85.69, -175.75, -0.09, -0.00, -0.01, -0.15, -0.17, -0.11, 15.50, -3.50, 32.06, -9.93, 0.55, -0.17, -9.77, 0.72, -0.06, -3749483.86, 159600.01, -0.07
122139, 26.03, 52.37, 0,  , 340, 400,  , 14396, 18267, 2793.96, 5258, 9225, 359.19, -85.62, -175.62, -0.00, 0.02, -0.01, -0.14, -0.20, 0.01, 15.06, -3.50, 30.88, -9.92, 0.53, -0.02, -9.77, 0.74, -0.04, -3766085.69, 135883.11, -0.07
122622, 26.05, 52.36, 0,  , 346, 400,  , 14391, 18269, 2799.21, 5267, 9251, 359.56, -85.69, -175.69, -0.01, 0.01, -0.01, -0.12, -0.12, 0.15, 15.88, -4.50, 33.56, -9.90, 0.61, 0.08, -9.77, 0.73, -0.06, -3780083.03, 121885.77, -0.06
123107, 26.02, 52.36, 0,  , 349, 400,  , 14393, 18265, 2815.55, 5286, 9331, 2.38, -85.94, -176.06, -0.02, 0.04, -0.06, -0.15, -0.35, -0.12, 15.06, -4.06, 33.00, -9.93, 0.25, -0.30, -9.78, 0.65, -0.17, -3797724.91, 80721.40, -0.07
123737, 26.02, 52.36, 0,  , 349, 400,  , 14392, 18262, 2818.47, 5300, 9319, 1.25, -85.81, -175.88, -0.14, -0.02, -0.00, -0.14, 0.05, -0.27, 15.50, -4.00, 34.00, -9.90, 0.72, -0.43, -9.78, 0.69, -0.12, -3825507.91, 90643.90, -0.09
124224, 26.02, 52.36, 0,  , 349, 400,  , 14398, 18271, 2806.79, 5280, 9251, 359.50, -85.50, -4.44, 0.02, 0.03, -0.01, -0.14, -0.10, -0.03, 15.38, -3.19, 32.69, -9.92, 0.65, -0.03, -9.77, 0.76, 0.00, -3842109.74, 78785.45, -0.07
124717, 26.00, 52.37, 0,  , 338, 400,  , 14398, 18273, 2819.64, 5302, 9336, 0.44, -85.69, -175.69, -0.07, 0.01, 0.02, -0.11, -0.11, -0.07, 15.06, -3.88, 31.75, -9.89, 0.61, -0.13, -9.77, 0.73, -0.06, -3855477.43, 65417.75, -0.05
125197, 26.03, 52.36, 0,  , 346, 400,  , 14402, 18282, 2830.15, 5326, 9351, 359.62, -85.50, -175.50, 0.00, 0.00, 0.00, -0.12, 0.00, 0.07, 14.75, -4.88, 32.25, -9.90, 0.75, 0.03, -9.77, 0.76, -0.03, -3869301.43, 65417.75, -0.06
125686, 26.02, 52.33, 0,  , 337, 400,  , 14401, 18281, 2834.24, 5325, 9368, 359.62, -85.56, -175.56, 0.01, 0.01, 0.00, -0.12, 0.08, -0.07, 15.75, -3.38, 33.06, -9.90, 0.84, -0.11, -9.77, 0.75, -0.04, -3883648.69, 74982.59, -0.06
126171, 26.02, 52.35, 0,  , 327, 400,  , 14396, 18289, 2831.32, 5322, 9358, 0.38, -85.69, -175.69, 0.15, -0.00, 0.03, -0.15, 0.04, 0.19, 16.19, -4.88, 32.25, -9.93, 0.78, 0.14, -9.77, 0.73, -0.04, -3901290.57, 79687.09, -0.07
126651, 26.05, 52.35, 0,  , 325, 400,  , 14407, 18292, 2829.57, 5319, 9366, 359.62, -85.69, -175.75, -0.12, 0.03, -0.00, -0.16, -0.36, 0.18, 15.38, -3.00, 32.69, -9.96, 0.45, -0.06, -9.77, 0.72, -0.06, -3919722.57, 38215.09, -0.08
127140, 26.06, 52.37, 0,  , 331, 400,  , 14399, 18291, 2825.48, 5317, 9345, 0.00, -85.56, -175.56, 0.20, 0.06, 0.00, -0.27, 0.43, -0.36, 15.06, -4.19, 33.06, -10.05, 1.19, -0.44, -9.77, 0.75, -0.07, -3952003.90, 89626.10, -0.13
127629, 26.03, 52.37, 0,  , 336, 400,  , 14400, 18288, 2822.56, 5319, 9321, 359.69, -85.44, -175.50, 0.33, 0.00, -0.04, -0.32, -0.03, 0.08, 15.75, -4.88, 32.25, -10.09, 0.72, 0.00, -9.77, 0.76, -0.08, -3990263.26, 86039.29, -0.16
128110, 26.03, 52.38, 0,  , 321, 400,  , 14395, 18284, 2828.40, 5317, 9393, 1.31, -85.44, -175.62, 0.41, 0.00, 0.07, 0.13, 0.60, -0.50, 15.25, -3.19, 33.38, -9.64, 1.34, -0.73, -9.77, 0.74, -0.22, -3975224.80, 155447.59, 0.06
128597, 26.05, 52.38, 0,  , 327, 400,  , 14400, 18288, 2831.91, 5323, 9451, 2.50, -85.94, -176.06, 0.08, 0.01, 0.02, -0.13, -0.20, -0.24, 14.25, -2.88, 31.88, -9.92, 0.45, -0.45, -9.78, 0.67, -0.16, -3990640.78, 131730.69, -0.06
129081, 26.06, 52.33, 0,  , 316, 400,  , 14410, 18300, 2823.14, 5308, 9271, 359.19, -85.19, -4.75, -0.02, -0.00, 0.00, -0.11, -0.22, 0.47, 15.50, -4.25, 31.38, -9.88, 0.59, 0.56, -9.77, 0.81, 0.08, -4003524.86, 105962.53, -0.05
129567, 26.05, 52.34, 0,  , 309, 400,  , 14408, 18302, 2813.80, 5286, 9269, 359.88, -85.50, -175.50, -0.02, -0.02, 0.01, -0.13, -0.16, -0.15, 14.56, -3.69, 32.50, -9.90, 0.59, -0.18, -9.77, 0.75, -0.05, -4018877.60, 87066.85, -0.06
130055, 26.05, 52.36, 0,  , 303, 400,  , 14409, 18303, 2814.97, 5292, 9275, 359.38, -85.25, -4.69, 0.00, 0.01, -0.01, -0.14, 0.00, 0.00, 15.56, -3.25, 30.56, -9.92, 0.80, 0.03, -9.77, 0.81, 0.04, -4035547.68, 87066.85, -0.07
130539, 26.05, 52.33, 0,  , 307, 400,  , 14411, 18302, 2813.22, 5291, 9312, 359.62, -85.31, -175.31, 0.00, -0.00, -0.00, -0.11, -0.01, 0.06, 15.19, -3.69, 30.88, -9.89, 0.78, 0.06, -9.77, 0.79, 0.00, -4048431.76, 85895.57, -0.05
131027, 26.06, 52.35, 0,  , 312, 400,  , 14412, 18301, 2826.65, 5314, 9333, 359.62, -85.38, -175.38, 0.00, -0.01, -0.00, -0.12, -0.09, 0.07, 15.56, -4.06, 31.69, -9.89, 0.68, 0.06, -9.77, 0.78, -0.01, -4062720.40, 75179.09, -0.06
131511, 26.05, 52.36, 0,  , 298, 400,  , 14411, 18305, 2824.90, 5315, 9333, 359.69, -85.38, -175.38, 0.00, 0.01, -0.00, -0.13, -0.09, 0.01, 15.56, -4.38, 30.56, -9.92, 0.70, 0.04, -9.77, 0.78, 0.00, -4077947.04, 64637.57, -0.06
131997, 26.07, 52.33, 0,  , 292, 400,  , 14415, 18314, 2827.82, 5316, 9316, 359.69, -85.44, -175.44, 0.00, -0.00, -0.01, -0.14, -0.12, 0.00, 15.19, -3.69, 31.69, -9.92, 0.65, 0.00, -9.77, 0.77, 0.00, -4094480.76, 50465.81, -0.07
132482, 26.07, 52.37, 0,  , 305, 400,  , 14414, 18316, 2826.65, 5315, 9317, 359.75, -85.44, -175.44, 0.01, 0.01, -0.00, -0.12, -0.03, -0.02, 15.19, -4.06, 30.88, -9.89, 0.73, -0.02, -9.77, 0.77, 0.00, -4108594.26, 46937.44, -0.06
132965, 26.07, 52.34, 0,  , 294, 400,  , 14410, 18314, 2832.49, 5324, 9341, 359.75, -85.44, -175.44, -0.00, -0.01, -0.00, -0.13, 0.00, 0.04, 15.19, -3.25, 31.69, -9.90, 0.77, 0.06, -9.77, 0.76, -0.01, -4123758.04, 46937.44, -0.06
133450, 26.05, 52.33, 0,  , 289, 400,  , 14421, 18317, 2823.14, 5308, 9338, 359.62, -85.44, -175.44, -0.01, -0.01, 0.01, -0.13, 0.04, 0.00, 14.56, -3.25, 30.19, -9.90, 0.81, 0.00, -9.77, 0.77, -0.01, -4139047.67, 51641.94, -0.06
133936, 26.07, 52.31, 0,  , 277, 400,  , 14417, 18324, 2816.72, 5299, 9308, 359.56, -85.44, -4.50, -0.01, -0.01, 0.01, -0.11, -0.11, -0.07, 15.19, -3.69, 31.25, -9.89, 0.66, -0.07, -9.77, 0.77, 0.00, -4152038.45, 38651.16, -0.05
134418, 26.07, 52.30, 0,  , 287, 400,  , 14416, 18321, 2823.73, 5310, 9334, 359.31, -85.25, -4.69, -0.01, 0.01, 0.00, -0.13, 0.09, 0.01, 14.75, -3.56, 30.88, -9.89, 0.87, 0.08, -9.77, 0.80, 0.05, -4167139.51, 49105.74, -0.06
134906, 26.07, 52.32, 0,  , 289, 400,  , 14411, 18318, 2820.22, 5303, 9304, 359.31, -85.31, -4.62, -0.00, -0.01, 0.00, -0.11, 0.01, 0.05, 15.50, -2.88, 31.69, -9.89, 0.81, 0.09, -9.77, 0.79, 0.03, -4180237.43, 50296.46, -0.05
135393, 26.05, 52.33, 0,  , 292, 400,  , 14412, 18318, 2831.91, 5323, 9327, 359.44, -85.38, -4.56, -0.01, -0.00, 0.01, -0.12, -0.06, -0.07, 15.50, -3.56, 29.69, -9.90, 0.71, -0.06, -9.77, 0.78, 0.01, -4194467.57, 43181.39, -0.06
135875, 26.06, 52.32, 0,  , 282, 400,  , 14412, 18319, 2845.35, 5346, 9341, 359.25, -85.31, -4.62, -0.02, 0.00, 0.02, -0.12, 0.15, -0.03, 15.06, -4.00, 30.88, -9.90, 0.95, 0.00, -9.77, 0.80, 0.03, -4208407.01, 60605.69, -0.06
136359, 26.05, 52.35, 0,  , 284, 400,  , 14417, 18326, 2847.69, 5347, 9363, 359.44, -85.50, -175.50, -0.01, 0.02, 0.01, -0.14, -0.10, -0.18, 15.06, -4.00, 30.88, -9.92, 0.66, -0.20, -9.77, 0.76, -0.01, -4224804.93, 48892.89, -0.07
136848, 26.06, 52.34, 0,  , 271, 400,  , 14423, 18335, 2851.20, 5357, 9346, 359.25, -85.31, -4.56, -0.03, 0.01, 0.01, -0.10, 0.06, 0.30, 15.75, -3.19, 32.06, -9.87, 0.85, 0.37, -9.77, 0.79, 0.07, -4236760.98, 56066.52, -0.05
137328, 26.03, 52.35, 0,  , 285, 400,  , 14411, 18328, 2849.44, 5353, 9326, 359.06, -85.31, -4.62, -0.02, -0.02, 0.01, -0.14, -0.26, 0.10, 14.88, -4.69, 30.56, -9.91, 0.52, 0.15, -9.77, 0.79, 0.04, -4252888.98, 26114.52, -0.07
137815, 26.06, 52.37, 0,  , 274, 400,  , 14421, 18330, 2843.01, 5342, 9324, 359.12, -85.31, -4.62, 0.03, -0.00, -0.00, -0.12, -0.11, -0.07, 16.06, -3.56, 33.25, -9.89, 0.68, -0.05, -9.77, 0.79, 0.02, -4267119.12, 13070.22, -0.06
138302, 26.07, 52.33, 0,  , 284, 400,  , 14409, 18322, 2850.03, 5354, 9323, 358.88, -85.19, -4.75, -0.01, 0.00, 0.01, -0.11, -0.11, 0.13, 14.88, -4.00, 31.69, -9.88, 0.69, 0.18, -9.77, 0.81, 0.05, -4280163.41, 25.93, -0.05
138788, 26.07, 52.34, 0,  , 279, 400,  , 14413, 18325, 2850.61, 5357, 9367, 358.88, -85.19, -4.75, -0.05, -0.01, -0.01, -0.12, -0.10, 0.13, 14.88, -3.56, 31.69, -9.86, 0.62, 0.17, -9.77, 0.81, 0.04, -4294335.17, -11783.87, -0.06
139274, 26.05, 52.35, 0,  , 267, 400,  , 14418, 18336, 2850.03, 5344, 9347, 358.62, -85.06, -4.88, -0.00, 0.00, -0.01, -0.15, 0.04, -0.05, 14.88, -3.19, 31.25, -9.92, 0.87, 0.00, -9.77, 0.83, 0.05, -4312049.87, -7059.95, -0.07
139760, 26.05, 52.34, 0,  , 266, 400,  , 14423, 18342, 2842.43, 5341, 9346, 358.94, -85.38, -175.38, -0.02, -0.02, 0.01, -0.12, -0.07, 0.07, 14.56, -4.00, 31.56, -9.90, 0.73, 0.07, -9.77, 0.78, 0.00, -4326221.63, -15326.81, -0.06
140246, 26.05, 52.37, 0,  , 273, 400,  , 14423, 18332, 2844.76, 5345, 9343, 358.94, -85.44, -175.44, -0.00, -0.00, 0.00, -0.13, -0.05, -0.06, 15.25, -3.19, 31.56, -9.90, 0.72, -0.06, -9.77, 0.77, 0.00, -4341574.37, -21231.71, -0.06
140731, 26.05, 52.36, 0,  , 257, 400,  , 14423, 18343, 2843.01, 5348, 9359, 359.00, -85.44, -175.44, -0.01, -0.01, 0.00, -0.12, -0.03, -0.04, 15.25, -2.88, 31.56, -9.89, 0.73, -0.05, -9.77, 0.77, 0.00, -4355687.87, -24760.09, -0.06
141216, 26.05, 52.38, 0,  , 257, 400,  , 14417, 18342, 2845.93, 5349, 9345, 359.00, -85.44, -175.44, 0.00, 0.00, -0.00, -0.13, -0.11, -0.02, 15.25, -3.56, 31.19, -9.90, 0.65, -0.02, -9.77, 0.77, 0.00, -4370977.49, -37697.46, -0.06
141701, 26.06, 52.44, 0,  , 258, 400,  , 14415, 18336, 2831.32, 5322, 9322, 359.12, -85.50, -175.50, 0.01, 0.02, -0.01, -0.13, -0.05, -0.04, 14.25, -3.56, 32.38, -9.91, 0.71, -0.06, -9.77, 0.76, -0.02, -4386267.12, -43578.09, -0.06
142186, 26.06, 52.47, 0,  , 256, 400,  , 14422, 18348, 2823.14, 5308, 9282, 359.12, -85.50, -175.50, 0.00, 0.00, -0.00, -0.12, 0.08, 0.15, 13.88, -3.56, 30.75, -9.90, 0.85, 0.12, -9.77, 0.76, -0.02, -4400380.62, -34169.09, -0.06
142669, 26.03, 52.49, 0,  , 258, 400,  , 14421, 18344, 2817.89, 5299, 9266, 359.25, -85.50, -175.50, -0.01, -0.01, 0.00, -0.13, -0.03, 0.00, 14.56, -2.88, 30.50, -9.91, 0.72, -0.07, -9.77, 0.76, -0.06, -4415544.40, -37668.42, -0.06
143156, 26.02, 52.52, 0,  , 266, 400,  , 14424, 18349, 2815.55, 5294, 9254, 359.19, -85.50, -175.50, 0.00, 0.00, -0.00, -0.13, 0.02, 0.13, 15.25, -2.88, 31.25, -9.91, 0.79, 0.10, -9.77, 0.76, -0.03, -4430960.39, -35296.73, -0.06
143642, 26.05, 52.55, 0,  , 254, 400,  , 14424, 18349, 2819.06, 5299, 9257, 359.19, -85.50, -175.50, -0.00, -0.00, 0.00, -0.29, 0.03, 0.05, 14.88, -4.00, 31.19, -10.07, 0.79, 0.01, -9.77, 0.76, -0.04, -4465208.81, -31753.79, -0.14
144124, 26.06, 52.51, 0,  , 248, 400,  , 14429, 18354, 2813.80, 5292, 9250, 359.38, -85.56, -175.56, 0.01, 0.01, -0.00, -0.15, -0.11, 0.05, 14.88, -4.00, 30.75, -9.93, 0.63, 0.00, -9.77, 0.74, -0.05, -4482633.11, -44531.61, -0.07
144613, 26.05, 52.58, 0,  , 251, 400,  , 14427, 18351, 2812.63, 5290, 9247, 359.44, -85.62, -175.62, 0.00, 0.00, -0.00, -0.12, -0.04, 0.04, 13.75, -4.25, 31.56, -9.90, 0.70, 0.00, -9.77, 0.74, -0.05, -4496980.37, -49314.03, -0.06
145097, 26.06, 52.60, 0,  , 244, 400,  , 14432, 18361, 2810.30, 5293, 9236, 359.50, -85.62, -175.62, 0.01, -0.00, -0.00, -0.14, -0.09, 0.00, 14.50, -3.19, 31.19, -9.92, 0.64, -0.05, -9.77, 0.74, -0.05, -4513378.29, -59855.55, -0.07
145582, 26.02, 52.57, 0,  , 250, 400,  , 14425, 18351, 2813.80, 5282, 9245, 359.62, -85.62, -175.69, 0.01, 0.02, -0.02, -0.11, -0.03, 0.04, 15.19, -3.19, 31.56, -9.89, 0.69, 0.00, -9.77, 0.73, -0.05, -4526315.66, -63383.93, -0.05
146069, 26.05, 52.52, 0,  , 249, 400,  , 14429, 18356, 2804.46, 5276, 9277, 359.62, -85.69, -175.69, -0.11, 0.01, 0.01, -0.40, -0.15, 0.46, 15.56, -4.00, 30.50, -10.18, 0.57, 0.42, -9.77, 0.73, -0.04, -4573749.46, -81171.60, -0.19
146551, 26.03, 52.49, 0,  , 243, 400,  , 14430, 18357, 2802.71, 5273, 9253, 359.94, -85.75, -175.75, 0.02, 0.00, 0.00, -0.29, 0.03, -0.18, 14.56, -4.38, 30.75, -10.07, 0.75, -0.24, -9.78, 0.71, -0.06, -4607436.44, -77686.74, -0.14
147040, 26.03, 52.49, 0,  , 245, 400,  , 14439, 18366, 2802.13, 5272, 9234, 359.81, -85.69, -175.69, 0.01, 0.01, -0.00, -0.12, 0.04, 0.10, 14.88, -4.06, 30.38, -9.90, 0.77, 0.06, -9.77, 0.73, -0.03, -4621783.70, -72904.32, -0.06
147525, 26.03, 52.43, 0,  , 246, 400,  , 14438, 18372, 2803.88, 5272, 9248, 359.94, -85.69, -175.69, -0.01, -0.01, 0.00, -0.11, -0.02, 0.13, 15.69, -3.69, 31.50, -9.89, 0.70, 0.07, -9.77, 0.73, -0.06, -4634721.08, -75256.57, -0.05
148009, 26.03, 52.44, 0,  , 239, 400,  , 14435, 18366, 2802.71, 5264, 9228, 0.06, -85.69, -175.69, -0.00, 0.00, -0.00, -0.15, -0.10, -0.02, 15.25, -3.25, 30.38, -9.93, 0.62, -0.09, -9.77, 0.72, -0.06, -4652290.28, -86969.37, -0.07
148495, 26.03, 52.48, 0,  , 241, 400,  , 14429, 18363, 2796.87, 5263, 9224, 0.12, -85.75, -175.75, 0.00, 0.01, -0.00, -0.12, 0.00, 0.00, 15.25, -3.00, 30.38, -9.90, 0.72, -0.03, -9.77, 0.72, -0.04, -4666462.04, -86969.37, -0.06
148989, 26.03, 52.39, 0,  , 246, 400,  , 14435, 18365, 2810.88, 5287, 9248, 0.25, -85.88, -175.88, 0.01, 0.02, -0.01, -0.13, -0.06, 0.07, 15.69, -3.69, 30.38, -9.91, 0.64, 0.02, -9.78, 0.70, -0.04, -4682324.38, -94290.45, -0.06
149473, 26.03, 52.37, 0,  , 238, 400,  , 14434, 18367, 2807.96, 5276, 9260, 0.31, -85.81, -175.81, 0.02, 0.01, -0.00, -0.13, -0.07, 0.08, 16.75, -3.00, 28.75, -9.91, 0.63, 0.00, -9.78, 0.70, -0.07, -4697551.02, -102489.41, -0.06
149958, 26.02, 52.34, 0,  , 243, 400,  , 14434, 18368, 2802.13, 5279, 9256, 0.31, -85.75, -175.81, 0.01, 0.02, -0.01, -0.10, 0.00, 0.15, 14.88, -4.06, 29.50, -9.88, 0.71, 0.08, -9.78, 0.71, -0.06, -4709312.27, -102489.41, -0.05
150444, 26.00, 52.38, 0,  , 231, 400,  , 14435, 18374, 2816.72, 5295, 9270, 0.50, -85.81, -175.88, 0.01, 0.00, -0.01, -0.11, 0.04, 0.05, 14.25, -4.06, 28.75, -9.89, 0.75, -0.05, -9.78, 0.70, -0.10, -4722303.05, -97765.49, -0.05
150930, 26.02, 52.36, 0,  , 228, 400,  , 14442, 18388, 2813.80, 5292, 9263, 0.56, -85.75, -175.81, 0.02, 0.01, -0.01, -0.10, 0.21, -0.18, 14.25, -3.56, 27.69, -9.88, 0.92, -0.33, -9.78, 0.70, -0.14, -4734112.85, -72964.91, -0.05
151416, 26.03, 52.39, 0,  , 233, 400,  , 14437, 18377, 2813.80, 5292, 9248, 0.50, -85.69, -175.81, -0.01, -0.00, 0.02, -0.08, 0.17, 0.11, 13.56, -2.56, 26.56, -9.86, 0.89, -0.04, -9.77, 0.71, -0.16, -4743560.69, -52888.25, -0.04
151899, 26.05, 52.39, 0,  , 237, 400,  , 14438, 18382, 2806.21, 5282, 9216, 0.00, -85.44, -175.56, -0.01, -0.02, 0.00, -0.11, 0.00, 0.04, 14.56, -3.00, 26.50, -9.89, 0.75, -0.09, -9.77, 0.75, -0.14, -4756391.58, -52888.25, -0.05
152384, 26.00, 52.39, 0,  , 234, 400,  , 14440, 18372, 2809.13, 5286, 9204, 0.25, -85.75, -175.75, -0.02, -0.03, 0.00, -0.12, -0.12, 0.19, 13.50, -2.56, 28.88, -9.90, 0.60, 0.13, -9.77, 0.72, -0.05, -4770505.08, -67001.75, -0.06
152870, 26.02, 52.41, 0,  , 238, 400,  , 14431, 18383, 2819.64, 5302, 9203, 0.31, -85.81, -175.81, 0.09, 0.00, -0.01, -0.15, 0.01, -0.15, 12.25, -3.25, 28.88, -9.93, 0.72, -0.17, -9.78, 0.71, -0.02, -4788219.78, -65820.77, -0.07
153353, 26.02, 52.40, 0,  , 236, 400,  , 14436, 18382, 2831.91, 5323, 9219, 0.38, -85.81, -175.81, -0.02, 0.02, -0.02, -0.12, 0.00, 0.03, 12.25, -2.88, 29.06, -9.90, 0.70, 0.01, -9.78, 0.71, -0.01, -4802217.12, -65820.77, -0.06
153838, 26.00, 52.46, 0,  , 237, 400,  , 14432, 18378, 2826.06, 5313, 9200, 0.38, -85.75, -175.75, 0.01, -0.00, -0.01, -0.13, 0.18, 0.14, 11.25, -2.06, 29.88, -9.89, 0.81, 0.12, -9.78, 0.71, -0.01, -4817506.75, -44650.52, -0.06
154325, 26.00, 52.42, 0,  , 233, 400,  , 14437, 18385, 2824.31, 5318, 9210, 0.38, -85.69, -175.69, 0.02, -0.01, -0.00, -0.14, 0.17, -0.01, 11.88, -2.88, 29.56, -9.92, 0.90, -0.02, -9.77, 0.72, -0.01, -4834108.58, -24491.16, -0.07
154807, 26.02, 52.44, 0,  , 225, 400,  , 14447, 18379, 2843.60, 5338, 9245, 0.44, -85.69, -175.69, -0.01, -0.02, -0.01, -0.11, -0.13, -0.09, 12.69, -1.75, 29.06, -9.89, 0.59, -0.11, -9.77, 0.73, -0.02, -4846886.40, -39592.22, -0.05
155295, 25.99, 52.37, 0,  , 227, 400,  , 14446, 18387, 2840.67, 5338, 9216, 0.12, -85.50, -4.38, -0.01, 0.01, -0.02, -0.15, -0.06, 0.00, 11.88, -3.19, 28.75, -9.93, 0.69, 0.04, -9.77, 0.75, 0.04, -4864747.20, -46736.54, -0.07
155777, 25.97, 52.41, 0,  , 227, 400,  , 14450, 18389, 2840.09, 5337, 9219, 0.19, -85.50, -4.44, 0.03, 0.00, -0.01, -0.12, 0.03, 0.07, 11.56, -2.50, 29.56, -9.90, 0.79, 0.11, -9.77, 0.76, 0.04, -4878686.64, -43251.68, -0.06
156262, 26.02, 52.35, 0,  , 219, 400,  , 14447, 18392, 2837.17, 5332, 9220, 0.31, -85.56, -4.38, -0.00, -0.00, -0.00, -0.11, 0.01, 0.06, 12.69, -2.88, 28.75, -9.89, 0.77, 0.10, -9.77, 0.75, 0.03, -4891624.01, -42075.55, -0.05
156749, 25.97, 52.40, 0,  , 225, 400,  , 14452, 18395, 2838.92, 5330, 9223, 0.38, -85.50, -4.44, 0.02, 0.00, -0.00, -0.13, -0.02, 0.01, 11.56, -2.50, 29.50, -9.90, 0.73, 0.04, -9.77, 0.75, 0.03, -4907040.00, -44447.24, -0.06
157231, 26.00, 52.39, 0,  , 218, 400,  , 14453, 18408, 2836.58, 5335, 9220, 0.44, -85.50, -4.44, 0.00, 0.00, -0.01, -0.12, 0.01, 0.00, 11.88, -3.19, 29.06, -9.89, 0.77, 0.03, -9.77, 0.75, 0.02, -4920979.43, -43285.62, -0.06
157715, 25.99, 52.40, 0,  , 216, 400,  , 14456, 18403, 2832.49, 5324, 9210, 0.50, -85.50, -4.38, 0.02, 0.01, -0.01, -0.12, 0.07, 0.00, 11.56, -3.19, 29.56, -9.90, 0.83, 0.03, -9.77, 0.75, 0.02, -4935034.79, -35086.66, -0.06
158204, 26.00, 52.33, 0,  , 215, 400,  , 14454, 18409, 2830.15, 5320, 9216, 0.50, -85.50, -4.44, 0.00, 0.00, -0.00, -0.13, 0.00, 0.06, 12.69, -1.75, 29.06, -9.91, 0.75, 0.09, -9.77, 0.75, 0.02, -4950577.66, -35086.66, -0.06
158686, 25.97, 52.36, 0,  , 216, 400,  , 14445, 18397, 2832.49, 5319, 9223, 0.50, -85.50, -4.44, -0.00, -0.01, 0.01, -0.10, 0.06, 0.01, 11.88, -1.38, 29.56, -9.88, 0.81, 0.03, -9.77, 0.75, 0.02, -4962193.86, -28116.94, -0.05
159169, 25.99, 52.34, 0,  , 218, 400,  , 14447, 18397, 2836.00, 5329, 9252, 0.50, -85.50, -4.44, 0.01, 0.00, -0.00, -0.12, 0.01, -0.01, 11.25, -3.19, 29.50, -9.92, 0.76, 0.00, -9.77, 0.75, 0.02, -4976191.20, -26950.50, -0.06
159655, 26.00, 52.31, 0,  , 221, 400,  , 14452, 18411, 2831.91, 5332, 9268, 0.50, -85.50, -4.44, -0.00, -0.00, 0.00, -0.13, -0.09, -0.02, 10.88, -4.00, 29.06, -9.91, 0.66, 0.00, -9.77, 0.75, 0.02, -4991543.94, -37579.32, -0.06
160140, 25.99, 52.29, 0,  , 217, 400,  , 14445, 18404, 2837.17, 5332, 9281, 0.50, -85.50, -4.38, 0.00, 0.01, -0.01, -0.11, -0.10, -0.04, 11.88, -2.50, 29.56, -9.88, 0.65, -0.01, -9.77, 0.75, 0.03, -5004481.31, -49340.57, -0.05
160623, 25.99, 52.29, 0,  , 212, 400,  , 14455, 18415, 2826.65, 5314, 9240, 0.44, -85.50, -4.44, 0.02, 0.02, -0.00, -0.15, 0.00, -0.01, 11.88, -2.88, 29.56, -9.89, 0.77, -0.02, -9.77, 0.76, 0.04, -5021977.99, -49340.57, -0.07
161108, 25.97, 52.29, 0,  , 208, 400,  , 14459, 18409, 2830.15, 5320, 9246, 0.38, -85.50, -4.44, -0.00, -0.00, 0.01, -0.10, 0.03, 0.14, 11.38, -3.19, 29.50, -9.88, 0.79, 0.18, -9.77, 0.76, 0.04, -5033739.24, -45812.19, -0.05
161594, 25.99, 52.28, 0,  , 205, 400,  , 14458, 18409, 2825.48, 5312, 9229, 0.31, -85.56, -4.38, -0.03, -0.02, 0.01, -0.13, 0.24, -0.24, 12.50, -2.88, 29.56, -9.91, 1.00, -0.21, -9.77, 0.75, 0.03, -5049091.98, -17468.67, -0.06
162077, 25.97, 52.24, 0,  , 207, 400,  , 14452, 18409, 2833.08, 5325, 9243, 0.38, -85.44, -4.44, 0.07, 0.02, 0.01, -0.05, 0.04, -0.12, 11.75, -2.06, 29.00, -9.83, 0.81, -0.08, -9.77, 0.76, 0.04, -5054924.20, -12802.89, -0.02
162562, 25.97, 52.30, 0,  , 211, 400,  , 14452, 18410, 2828.99, 5318, 9242, 0.44, -85.44, -4.50, -0.04, 0.02, -0.03, -0.10, 0.07, 0.21, 11.75, -1.38, 29.00, -9.87, 0.84, 0.24, -9.77, 0.76, 0.03, -5066685.45, -4570.02, -0.05
163048, 25.97, 52.29, 0,  , 206, 400,  , 14457, 18413, 2824.31, 5310, 9247, 0.19, -85.50, -4.44, -0.01, 0.01, -0.00, -0.12, 0.22, -0.22, 11.50, -2.56, 29.00, -9.95, 0.81, -0.14, -9.77, 0.76, 0.00, -5080857.21, 21411.54, -0.06
163535, 25.97, 52.25, 0,  , 212, 400,  , 14454, 18417, 2830.15, 5322, 9245, 0.00, -85.31, -4.62, 0.07, -0.01, 0.00, -0.10, 0.11, 0.02, 13.00, -3.00, 29.75, -9.88, 0.90, 0.05, -9.77, 0.79, 0.02, -5092715.66, 34455.84, -0.05
164017, 25.96, 52.22, 0,  , 210, 400,  , 14456, 18419, 2837.17, 5335, 9253, 0.81, -85.31, -4.62, 0.02, 0.02, -0.02, -0.06, 0.33, -0.13, 11.19, -3.25, 29.69, -9.84, 1.13, -0.12, -9.77, 0.79, 0.01, -5099685.38, 72789.30, -0.03
164506, 25.97, 52.24, 0,  , 204, 400,  , 14457, 18425, 2829.57, 5319, 9258, 0.38, -85.69, -4.25, -0.01, -0.02, 0.02, -0.03, -0.08, 0.18, 12.56, -2.50, 28.56, -9.81, 0.65, 0.22, -9.77, 0.73, 0.03, -5103272.20, 63224.46, -0.01
164987, 25.97, 52.24, 0,  , 204, 400,  , 14459, 18422, 2830.74, 5321, 9254, 0.25, -85.56, -4.38, -0.00, 0.01, 0.00, -0.12, 0.14, -0.11, 12.25, -1.75, 29.38, -9.90, 0.89, -0.07, -9.77, 0.74, 0.04, -5117153.86, 79419.73, -0.06
165473, 25.96, 52.21, 0,  , 200, 400,  , 14453, 18424, 2833.66, 5328, 9260, 0.25, -85.56, -4.38, 0.00, -0.00, 0.00, -0.11, 0.11, 0.00, 12.25, -2.88, 29.69, -9.90, 0.84, 0.02, -9.77, 0.75, 0.03, -5130144.64, 92410.51, -0.05
165961, 25.97, 52.21, 0,  , 207, 400,  , 14464, 18433, 2834.24, 5325, 9255, 0.19, -85.56, -4.38, -0.02, -0.01, 0.00, -0.11, 0.01, 0.00, 11.88, -2.50, 28.56, -9.89, 0.77, 0.03, -9.77, 0.75, 0.03, -5143242.56, 93601.23, -0.05
166447, 25.95, 52.22, 0,  , 197, 400,  , 14458, 18426, 2834.83, 5328, 9263, 0.19, -85.56, -4.38, 0.00, 0.00, -0.00, -0.11, 0.03, -0.06, 11.88, -3.19, 29.38, -9.90, 0.81, 0.00, -9.77, 0.75, 0.04, -5156233.34, 97144.17, -0.05
166934, 25.96, 52.21, 0,  , 199, 400,  , 14466, 18426, 2835.41, 5329, 9265, 0.19, -85.56, -4.38, -0.00, -0.00, -0.00, -0.10, 0.06, 0.01, 12.69, -2.50, 28.56, -9.88, 0.82, 0.06, -9.77, 0.75, 0.04, -5168091.79, 104259.24, -0.05
167421, 25.97, 52.22, 0,  , 200, 400,  , 14456, 18425, 2839.50, 5336, 9282, 0.19, -85.56, -4.38, 0.00, -0.01, -0.00, -0.13, 0.08, 0.00, 11.56, -2.06, 29.69, -9.91, 0.84, 0.03, -9.77, 0.75, 0.04, -5183507.77, 113746.00, -0.06
167903, 25.97, 52.21, 0,  , 193, 400,  , 14464, 18441, 2838.92, 5337, 9287, 0.19, -85.56, -4.38, 0.00, -0.00, 0.00, -0.13, 0.05, -0.01, 12.25, -2.06, 29.38, -9.91, 0.80, 0.02, -9.77, 0.75, 0.04, -5198608.83, 119554.10, -0.06
168389, 25.97, 52.20, 0,  , 196, 400,  , 14468, 18442, 2845.35, 5342, 9281, 0.12, -85.56, -4.38, -0.00, 0.00, -0.01, -0.12, 0.01, 0.04, 11.88, -2.88, 28.56, -9.89, 0.76, 0.09, -9.77, 0.75, 0.04, -5212780.59, 120735.08, -0.06
168873, 25.97, 52.21, 0,  , 195, 400,  , 14460, 18440, 2844.18, 5344, 9289, 0.12, -85.56, -4.38, 0.00, 0.00, -0.00, -0.12, 0.07, -0.04, 13.06, -1.75, 28.56, -9.89, 0.83, 0.00, -9.77, 0.75, 0.04, -5226835.95, 128934.04, -0.06
169360, 25.96, 52.19, 0,  , 191, 400,  , 14469, 18445, 2844.76, 5345, 9294, 0.12, -85.56, -4.38, -0.01, -0.01, -0.00, -0.11, -0.04, 0.00, 12.25, -2.50, 29.38, -9.89, 0.70, 0.03, -9.77, 0.75, 0.04, -5239880.25, 124190.66, -0.05
169843, 25.99, 52.21, 0,  , 198, 400,  , 14459, 18436, 2844.76, 5345, 9300, 0.12, -85.56, -4.38, -0.00, -0.00, 0.01, -0.10, 0.15, -0.07, 11.88, -2.88, 28.19, -9.92, 0.91, 0.00, -9.77, 0.75, 0.04, -5251544.70, 141687.33, -0.05
170329, 25.97, 52.21, 0,  , 194, 400,  , 14460, 18430, 2847.10, 5355, 9295, 0.06, -85.56, -4.38, -0.00, -0.01, -0.01, -0.12, 0.00, -0.09, 12.25, -2.88, 28.19, -9.90, 0.74, -0.02, -9.77, 0.75, 0.06, -5265716.46, 141687.33, -0.06
170814, 25.95, 52.19, 0,  , 197, 400,  , 14462, 18444, 2843.60, 5339, 9307, 0.00, -85.56, -4.38, -0.01, -0.00, -0.00, -0.12, 0.02, -0.06, 12.69, -3.56, 30.88, -9.90, 0.78, 0.00, -9.77, 0.75, 0.06, -5279829.96, 144039.58, -0.06
171297, 25.96, 52.21, 0,  , 188, 400,  , 14462, 18443, 2879.87, 5405, 9414, 2.00, -85.88, -175.88, -0.63, 0.17, -0.12, -0.63, -0.93, 0.03, 12.19, -0.69, 27.69, -10.91, -0.10, -0.25, -9.78, 0.69, -0.05, -5353315.99, 35560.20, -0.30
171782, 25.95, 52.22, 0,  , 185, 400,  , 14468, 18447, 2863.48, 5377, 9386, 1.69, -85.50, -4.44, -0.11, -0.04, 0.03, -0.14, 0.30, 0.19, 12.69, -0.75, 28.19, -9.92, 1.07, 0.24, -9.77, 0.76, 0.05, -5369781.74, 70843.95, -0.07
172266, 25.96, 52.20, 0,  , 192, 400,  , 14461, 18440, 2866.41, 5380, 9370, 1.38, -85.31, -4.62, -0.02, -0.01, 0.00, -0.11, 0.14, -0.10, 13.06, -1.50, 27.88, -9.89, 0.94, -0.02, -9.77, 0.79, 0.07, -5382665.82, 87241.87, -0.05
172747, 25.95, 52.17, 0,  , 188, 400,  , 14466, 18447, 2868.16, 5385, 9371, 1.38, -85.31, -4.56, 0.01, 0.00, -0.00, -0.15, 0.10, -0.02, 11.69, -0.75, 28.69, -9.92, 0.89, 0.05, -9.77, 0.78, 0.08, -5400017.90, 98809.92, -0.07
173232, 25.93, 52.16, 0,  , 182, 400,  , 14473, 18445, 2867.58, 5390, 9385, 1.44, -85.44, -4.50, 0.00, -0.00, -0.00, -0.11, 0.20, -0.10, 12.25, -1.06, 28.19, -9.89, 0.94, -0.02, -9.77, 0.77, 0.07, -5412955.27, 122332.42, -0.05
173727, 25.96, 52.22, 0,  , 188, 400,  , 14460, 18436, 2872.26, 5392, 9379, 1.38, -85.38, -4.50, 0.00, 0.01, -0.01, -0.11, 0.17, 0.11, 12.00, -0.38, 27.50, -9.88, 0.94, 0.19, -9.77, 0.77, 0.07, -5426431.65, 143159.55, -0.05
174208, 25.93, 52.21, 0,  , 191, 400,  , 14462, 18452, 2872.26, 5392, 9394, 1.56, -85.50, -4.44, 0.00, 0.00, -0.01, -0.11, 0.03, -0.04, 12.25, -0.75, 27.88, -9.88, 0.79, 0.01, -9.77, 0.76, 0.05, -5439156.50, 146629.96, -0.05
174694, 25.96, 52.21, 0,  , 184, 400,  , 14466, 18447, 2870.50, 5387, 9397, 1.56, -85.50, -4.44, -0.01, -0.01, 0.00, -0.13, -0.01, 0.02, 12.25, -0.75, 28.19, -9.89, 0.77, 0.08, -9.77, 0.76, 0.07, -5454509.24, 145448.98, -0.06
175181, 25.93, 52.22, 0,  , 186, 400,  , 14468, 18453, 2873.43, 5392, 9406, 1.62, -85.50, -4.38, -0.00, -0.01, -0.01, -0.11, -0.15, -0.21, 13.06, -0.75, 27.06, -9.89, 0.60, -0.15, -9.77, 0.75, 0.05, -5467553.54, 127661.31, -0.05
175666, 25.95, 52.25, 0,  , 185, 400,  , 14466, 18454, 2871.09, 5390, 9394, 1.62, -85.56, -4.38, 0.01, 0.01, -0.01, -0.13, 0.02, -0.03, 12.25, -1.50, 28.19, -9.91, 0.78, 0.02, -9.77, 0.75, 0.07, -5482843.16, 130013.56, -0.06
176154, 25.93, 52.22, 0,  , 181, 400,  , 14472, 18455, 2874.60, 5396, 9406, 1.75, -85.62, -4.31, 0.00, -0.00, -0.00, -0.12, -0.03, -0.01, 13.06, -1.06, 29.38, -9.90, 0.70, 0.03, -9.77, 0.74, 0.05, -5497131.80, 126441.40, -0.06
176642, 25.93, 52.28, 0,  , 181, 400,  , 14474, 18461, 2872.26, 5396, 9408, 1.75, -85.62, -4.31, -0.00, 0.00, -0.01, -0.10, 0.00, -0.04, 12.25, -1.50, 27.50, -9.88, 0.75, 0.00, -9.77, 0.74, 0.04, -5509039.00, 126441.40, -0.05
177125, 25.93, 52.26, 0,  , 181, 400,  , 14481, 18475, 2873.43, 5398, 9407, 1.62, -85.56, -4.38, 0.02, 0.00, -0.01, -0.13, 0.01, 0.01, 12.25, -1.06, 27.88, -9.91, 0.76, 0.08, -9.77, 0.74, 0.06, -5524202.78, 127607.84, -0.06
177610, 25.92, 52.27, 0,  , 177, 400,  , 14468, 18468, 2874.60, 5399, 9410, 1.62, -85.56, -4.38, 0.00, -0.00, -0.00, -0.10, 0.09, 0.05, 12.06, -1.06, 27.50, -9.91, 0.83, 0.11, -9.77, 0.75, 0.05, -5535964.03, 138192.97, -0.05
178095, 25.93, 52.29, 0,  , 182, 400,  , 14467, 18461, 2876.94, 5400, 9427, 1.62, -85.56, -4.38, -0.01, -0.01, 0.00, -0.12, -0.02, 0.09, 12.38, -1.88, 28.25, -9.90, 0.72, 0.15, -9.77, 0.75, 0.05, -5550077.53, 135840.72, -0.06
178580, 25.93, 52.26, 0,  , 177, 400,  , 14476, 18468, 2879.28, 5404, 9427, 1.69, -85.56, -4.38, -0.03, 0.01, -0.01, -0.14, 0.03, -0.08, 12.06, -1.06, 27.88, -9.92, 0.78, -0.02, -9.77, 0.75, 0.05, -5566543.28, 139369.09, -0.07
179065, 25.90, 52.25, 0,  , 172, 400,  , 14472, 18471, 2881.62, 5405, 9432, 1.50, -85.50, -4.44, -0.00, -0.01, 0.00, -0.10, 0.08, 0.01, 12.25, -1.06, 28.69, -9.87, 0.83, 0.08, -9.77, 0.76, 0.06, -5578304.53, 148778.09, -0.05
179548, 25.92, 52.25, 0,  , 171, 400,  , 14476, 18467, 2884.55, 5413, 9442, 1.50, -85.50, -4.44, -0.01, -0.01, -0.00, -0.12, -0.01, -0.06, 12.25, -0.38, 27.06, -9.89, 0.74, 0.00, -9.77, 0.76, 0.06, -5592301.87, 147611.65, -0.06
180034, 25.92, 52.28, 0,  , 167, 400,  , 14477, 18474, 2880.45, 5406, 9438, 1.50, -85.50, -4.44, -0.00, -0.00, 0.00, -0.10, 0.15, 0.01, 12.00, -1.06, 28.19, -9.88, 0.91, 0.08, -9.77, 0.76, 0.07, -5604111.67, 165326.35, -0.05
180521, 25.92, 52.25, 0,  , 174, 400,  , 14478, 18481, 2884.55, 5413, 9439, 1.50, -85.50, -4.44, 0.00, -0.00, 0.00, -0.14, -0.09, -0.02, 13.06, -1.06, 27.50, -9.91, 0.67, 0.04, -9.77, 0.76, 0.07, -5620713.50, 154653.74, -0.07
181004, 25.93, 52.27, 0,  , 177, 400,  , 14488, 18473, 2892.17, 5426, 9437, 1.50, -85.50, -4.44, 0.01, 0.00, 0.00, -0.11, -0.03, -0.03, 12.00, -1.06, 28.19, -9.88, 0.72, 0.03, -9.77, 0.76, 0.06, -5633544.40, 151154.41, -0.05
181493, 25.93, 52.28, 0,  , 166, 400,  , 14483, 18481, 2890.41, 5421, 9446, 1.56, -85.50, -4.44, 0.00, 0.01, 0.00, -0.14, -0.03, 0.01, 13.06, -1.50, 28.25, -9.92, 0.72, 0.08, -9.77, 0.76, 0.06, -5650282.87, 147567.59, -0.07
181975, 25.90, 52.29, 0,  , 166, 400,  , 14477, 18482, 2890.99, 5421, 9439, 1.56, -85.50, -4.44, -0.00, -0.00, 0.00, -0.13, 0.04, 0.03, 12.25, -0.75, 27.88, -9.91, 0.80, 0.09, -9.77, 0.76, 0.06, -5665383.93, 152214.07, -0.06
182460, 25.90, 52.24, 0,  , 170, 400,  , 14476, 18478, 2888.07, 5419, 9446, 1.56, -85.50, -4.44, 0.00, -0.00, -0.00, -0.13, 0.02, 0.01, 12.69, -0.75, 27.50, -9.89, 0.77, 0.01, -9.77, 0.76, 0.06, -5680673.55, 154566.32, -0.06
182947, 25.90, 52.25, 0,  , 167, 400,  , 14489, 18484, 2890.41, 5423, 9469, 1.56, -85.50, -4.44, 0.01, -0.01, 0.00, -0.10, 0.04, 0.06, 12.69, -1.50, 27.50, -9.87, 0.80, 0.13, -9.77, 0.76, 0.06, -5692532.00, 159309.70, -0.05
183430, 25.89, 52.24, 0,  , 169, 400,  , 14479, 18483, 2888.65, 5423, 9467, 1.62, -85.50, -4.44, 0.00, 0.01, -0.00, -0.14, -0.07, -0.05, 25.75, -8.00, 53.50, -9.92, 0.68, 0.00, -9.77, 0.76, 0.06, -5708862.23, 151144.59, -0.07
183915, 25.93, 52.25, 0,  , 161, 400,  , 14490, 18486, 2890.41, 5424, 9468, 1.56, -85.50, -4.44, -0.00, 0.00, -0.00, -0.12, -0.03, -0.02, 25.75, -6.56, 53.50, -9.89, 0.72, 0.04, -9.77, 0.76, 0.07, -5722975.73, 147616.21, -0.06
184402, 25.92, 52.26, 0,  , 160, 400,  , 14489, 18487, 2890.99, 5432, 9470, 1.56, -85.50, -4.44, -0.01, -0.00, -0.00, -0.14, 0.00, -0.01, 25.38, -7.69, 54.25, -9.91, 0.75, 0.05, -9.77, 0.76, 0.07, -5739577.56, 147616.21, -0.07
184886, 25.92, 52.23, 0,  , 160, 400,  , 14487, 18489, 2894.51, 5430, 9469, 1.56, -85.50, -4.44, 0.00, 0.00, -0.01, -0.11, -0.03, 0.08, 24.75, -7.69, 54.69, -9.89, 0.74, 0.11, -9.77, 0.76, 0.07, -5752461.64, 144102.37, -0.05
185373, 25.92, 52.21, 0,  , 160, 400,  , 14491, 18488, 2889.82, 5422, 9475, 1.62, -85.50, -4.44, 0.01, -0.01, 0.00, -0.14, -0.02, -0.04, 14.69, -4.00, 32.50, -9.92, 0.73, 0.03, -9.77, 0.76, 0.07, -5769063.47, 141730.68, -0.07
185859, 25.88, 52.24, 0,  , 163, 400,  , 14494, 18500, 2884.55, 5412, 9464, 1.88, -85.62, -4.31, 0.02, 0.00, -0.01, -0.15, -0.17, -0.11, 14.38, -4.19, 32.88, -9.89, 0.54, -0.05, -9.77, 0.73, 0.07, -5786778.17, 121654.02, -0.07
186345, 25.88, 52.25, 0,  , 165, 400,  , 14487, 18482, 2885.14, 5419, 9470, 1.81, -85.56, -4.31, 0.01, -0.01, 0.00, -0.11, -0.02, -0.01, 15.06, -4.19, 32.50, -9.88, 0.72, 0.04, -9.77, 0.74, 0.06, -5799768.95, 119292.06, -0.05
186830, 25.89, 52.22, 0,  , 162, 400,  , 14491, 18487, 2890.99, 5424, 9460, 1.75, -85.56, -4.38, 0.01, 0.00, -0.01, -0.16, 0.12, -0.09, 15.69, -2.75, 33.56, -9.91, 0.82, -0.04, -9.77, 0.75, 0.06, -5818586.95, 133405.56, -0.08
187315, 25.89, 52.25, 0,  , 161, 400,  , 14486, 18487, 2888.07, 5419, 9466, 1.62, -85.50, -4.44, 0.06, -0.02, 0.02, -0.13, -0.04, 0.26, 15.19, -4.19, 33.06, -9.90, 0.71, 0.34, -9.77, 0.76, 0.07, -5833876.58, 128701.06, -0.06
187801, 25.90, 52.23, 0,  , 157, 400,  , 14491, 18490, 2892.17, 5426, 9460, 1.56, -85.50, -4.44, 0.03, 0.01, -0.02, -0.15, -0.23, -0.18, 15.19, -4.19, 31.75, -9.93, 0.52, -0.11, -9.77, 0.75, 0.07, -5851591.28, 101538.52, -0.07
188284, 25.89, 52.27, 0,  , 148, 400,  , 14494, 18506, 2892.17, 5427, 9481, 1.94, -85.50, -4.44, 0.02, -0.01, -0.00, 0.00, 0.13, -0.07, 14.88, -4.19, 32.56, -9.77, 0.89, 0.00, -9.77, 0.76, 0.07, -5851591.28, 116702.30, 0.00
188768, 25.88, 52.24, 0,  , 150, 400,  , 14491, 18505, 2890.99, 5433, 9490, 1.94, -85.50, -4.38, 0.09, -0.05, 0.02, 0.00, 0.35, 0.13, 15.19, -3.75, 33.69, -9.77, 1.11, 0.19, -9.77, 0.75, 0.05, -5851591.28, 157697.10, 0.00
189252, 25.85, 52.29, 0,  , 152, 400,  , 14501, 18506, 2890.99, 5424, 9481, 2.12, -85.56, -175.56, 0.02, 0.05, 0.01, 0.30, 0.63, -0.57, 15.19, -4.06, 34.56, -9.47, 1.38, -0.58, -9.77, 0.74, 0.00, -5816452.88, 231487.74, 0.15
189734, 25.88, 52.27, 0,  , 151, 400,  , 14491, 18503, 2888.07, 5419, 9498, 1.81, -85.75, -4.19, -0.04, -0.01, 0.03, -0.04, 0.36, 0.17, 15.19, -3.69, 32.38, -9.82, 1.08, 0.24, -9.77, 0.71, 0.07, -5821099.36, 273306.06, -0.02
190221, 25.86, 52.28, 0,  , 155, 400,  , 14487, 18494, 2892.17, 5425, 9506, 1.94, -85.88, -4.06, -0.11, 0.01, 0.01, -0.09, 0.01, -0.26, 16.00, -4.38, 33.50, -9.87, 0.72, -0.23, -9.78, 0.70, 0.03, -5831771.96, 274491.91, -0.04
190705, 25.86, 52.29, 0,  , 153, 400,  , 14487, 18498, 2889.82, 5419, 9470, 0.56, -85.75, -4.19, -0.04, -0.00, -0.02, -0.16, -0.28, 0.11, 15.19, -3.19, 34.56, -9.94, 0.43, 0.18, -9.78, 0.71, 0.06, -5850512.44, 241696.07, -0.08
191188, 25.85, 52.27, 0,  , 152, 400,  , 14487, 18495, 2892.75, 5423, 9482, 0.88, -85.81, -4.12, -0.10, -0.00, -0.08, -0.59, -0.27, -0.31, 15.19, -4.88, 33.19, -9.68, 0.32, -0.15, -9.78, 0.70, 0.03, -5919332.69, 210202.05, -0.29
191677, 25.86, 52.27, 0,  , 150, 400,  , 14500, 18512, 2883.97, 5412, 9480, 0.19, -85.62, -4.25, -0.02, -0.03, -0.00, 0.00, 0.58, -0.18, 14.88, -4.50, 33.19, -9.77, 1.32, -0.10, -9.77, 0.73, 0.07, -5919332.69, 279547.14, 0.00
192166, 25.85, 52.25, 0,  , 150, 400,  , 14493, 18502, 2883.38, 5411, 9470, 0.25, -85.69, -4.25, -0.00, 0.01, -0.01, -0.25, 0.22, -0.46, 14.69, -4.75, 33.69, -10.03, 0.95, -0.39, -9.77, 0.73, 0.06, -5949222.82, 305850.45, -0.12
192647, 25.85, 52.25, 0,  , 148, 400,  , 14497, 18513, 2885.72, 5411, 9493, 0.75, -85.88, -4.06, -0.03, -0.01, 0.01, -0.24, -0.12, 0.24, 15.25, -4.06, 34.06, -10.02, 0.57, 0.32, -9.78, 0.70, 0.07, -5976986.14, 291968.79, -0.12
193132, 25.88, 52.31, 0,  , 148, 400,  , 14494, 18513, 2885.72, 5414, 9499, 0.88, -85.81, -4.12, -0.02, 0.01, -0.01, -0.11, -0.25, 0.00, 15.25, -3.69, 32.06, -9.89, 0.45, 0.02, -9.78, 0.71, 0.03, -5989923.51, 262565.67, -0.05
193619, 25.86, 52.30, 0,  , 144, 400,  , 14495, 18519, 2900.37, 5440, 9527, 3.44, -85.75, -175.75, 0.45, -0.01, -0.01, 0.12, 0.03, 0.06, 15.06, -3.25, 31.19, -9.65, 0.75, 0.04, -9.78, 0.71, -0.02, -5975693.37, 266123.20, 0.06
194100, 25.85, 52.32, 0,  , 150, 400,  , 14493, 18512, 2955.51, 5534, 9726, 10.25, -85.56, -175.62, -0.18, 0.02, -0.05, -0.04, 0.35, -0.52, 15.56, 0.25, 28.19, -9.82, 1.09, -0.63, -9.77, 0.73, -0.11, -5980320.59, 306611.38, -0.02
194730, 25.85, 52.30, 0,  , 150, 400,  , 14495, 18507, 2968.44, 5562, 9722, 9.00, -85.56, -175.56, -0.09, 0.04, -0.01, -0.18, 0.16, -0.01, 15.75, 2.00, 27.88, -9.95, 0.91, -0.02, -9.77, 0.75, 0.00, -6016041.59, 338363.38, -0.11
195212, 25.84, 52.34, 0,  , 147, 400,  , 14500, 18516, 2959.04, 5541, 9745, 8.62, -85.81, -175.81, -0.02, -0.05, 0.01, -0.06, 0.00, 0.26, 15.19, 2.19, 29.06, -9.84, 0.71, 0.23, -9.78, 0.71, -0.02, -6023011.31, 338363.38, -0.03
195697, 25.84, 52.31, 0,  , 147, 400,  , 14500, 18515, 2958.45, 5539, 9728, 8.75, -85.81, -175.81, 0.07, -0.03, -0.02, -0.41, 0.18, -0.26, 15.88, 0.88, 26.25, -10.19, 0.89, -0.29, -9.78, 0.71, -0.02, -6071232.44, 359533.63, -0.20
196185, 25.85, 52.32, 0,  , 149, 400,  , 14489, 18507, 2956.10, 5535, 9716, 7.75, -85.75, -175.75, -0.03, -0.05, 0.00, -0.16, -0.01, 0.13, 15.50, 0.56, 27.75, -9.94, 0.70, 0.13, -9.78, 0.71, 0.00, -6090283.96, 358342.91, -0.08
196666, 25.82, 52.34, 0,  , 144, 400,  , 14499, 18518, 2957.86, 5539, 9721, 8.38, -85.88, -4.06, 0.00, -0.01, 0.02, -0.08, 0.05, 0.06, 15.50, 1.19, 28.25, -9.86, 0.75, 0.08, -9.78, 0.69, 0.01, -6099538.40, 364126.93, -0.04
197151, 25.85, 52.38, 0,  , 147, 400,  , 14496, 18514, 2956.69, 5537, 9731, 8.38, -85.88, -4.06, 0.00, 0.01, 0.00, -0.11, -0.09, -0.05, 15.50, 2.00, 27.88, -9.91, 0.59, -0.01, -9.78, 0.70, 0.00, -6112475.77, 353541.81, -0.05
197640, 25.82, 52.36, 0,  , 142, 400,  , 14503, 18521, 2960.21, 5542, 9730, 8.38, -85.81, -4.12, 0.00, 0.00, 0.00, -0.14, -0.02, 0.00, 15.88, 1.56, 27.19, -9.92, 0.68, 0.00, -9.78, 0.71, 0.00, -6129214.24, 351150.60, -0.07
198121, 25.82, 52.41, 0,  , 142, 400,  , 14490, 18512, 2958.45, 5539, 9738, 8.38, -85.81, -4.12, -0.01, -0.01, 0.00, -0.12, -0.04, -0.07, 14.88, 2.25, 27.19, -9.90, 0.67, -0.06, -9.78, 0.71, 0.00, -6143095.90, 346523.38, -0.06
198614, 25.82, 52.42, 0,  , 147, 400,  , 14487, 18500, 2957.28, 5537, 9742, 8.38, -85.81, -4.12, 0.01, 0.00, -0.01, -0.09, 0.00, -0.03, 14.50, 1.56, 26.69, -9.87, 0.70, -0.01, -9.78, 0.71, 0.01, -6154033.11, 346523.38, -0.04
199098, 25.84, 52.46, 0,  , 145, 400,  , 14492, 18514, 2959.04, 5543, 9746, 8.38, -85.81, -4.12, -0.00, -0.00, -0.00, -0.11, 0.00, -0.01, 16.25, 1.56, 28.25, -9.89, 0.71, 0.00, -9.78, 0.71, 0.01, -6166917.19, 346523.38, -0.05
199584, 25.81, 52.53, 0,  , 141, 400,  , 14501, 18527, 2959.63, 5539, 9746, 8.38, -85.81, -4.12, 0.00, 0.00, -0.00, -0.12, 0.03, 0.00, 15.88, 1.25, 26.00, -9.90, 0.74, 0.01, -9.78, 0.71, 0.01, -6181088.95, 350066.32, -0.06
200072, 25.82, 52.52, 0,  , 145, 400,  , 14488, 18513, 2960.21, 5542, 9747, 8.31, -85.81, -4.12, 0.02, -0.00, 0.01, 0.03, 0.12, 0.00, 15.50, 2.75, 27.50, -9.74, 0.83, 0.00, -9.78, 0.70, 0.01, -6177516.79, 364354.96, 0.01
200554, 25.81, 52.56, 0,  , 144, 400,  , 14499, 18525, 2961.39, 5544, 9735, 8.31, -85.81, -4.12, 0.02, -0.00, 0.00, -0.12, 0.09, -0.05, 14.88, 1.69, 26.25, -9.90, 0.80, -0.04, -9.78, 0.70, 0.01, -6191456.23, 374809.54, -0.06
201041, 25.79, 52.57, 0,  , 141, 400,  , 14499, 18522, 2960.21, 5547, 9738, 8.38, -85.81, -4.12, 0.01, -0.00, 0.00, -0.10, 0.03, -0.01, 15.50, 2.38, 27.19, -9.89, 0.75, 0.00, -9.78, 0.70, 0.01, -6203266.03, 378352.48, -0.05
201528, 25.82, 52.57, 0,  , 139, 400,  , 14493, 18524, 2964.91, 5548, 9738, 8.38, -85.81, -4.12, 0.00, -0.00, -0.00, -0.13, 0.00, -0.05, 15.50, 1.69, 27.50, -9.91, 0.71, -0.04, -9.78, 0.70, 0.01, -6218682.01, 378352.48, -0.06
202010, 25.81, 52.62, 0,  , 139, 400,  , 14498, 18528, 2960.21, 5551, 9742, 8.38, -85.81, -4.12, 0.00, 0.00, 0.00, -0.12, 0.01, -0.07, 15.50, 2.06, 28.25, -9.90, 0.72, -0.05, -9.78, 0.70, 0.01, -6232621.45, 379514.10, -0.06
202497, 25.82, 52.59, 0,  , 135, 400,  , 14499, 18531, 2964.91, 5550, 9748, 8.38, -85.81, -4.12, -0.01, -0.00, 0.00, -0.13, 0.00, 0.02, 14.50, 2.38, 26.69, -9.91, 0.70, 0.03, -9.78, 0.70, 0.01, -6248037.44, 379514.10, -0.06
202980, 25.82, 52.65, 0,  , 141, 400,  , 14496, 18527, 2961.98, 5545, 9739, 8.38, -85.81, -4.12, 0.00, 0.00, -0.00, -0.09, 0.05, -0.02, 14.88, 2.06, 27.19, -9.87, 0.76, 0.00, -9.78, 0.70, 0.01, -6258535.44, 385346.32, -0.04
203465, 25.82, 52.64, 0,  , 133, 400,  , 14497, 18531, 2956.69, 5523, 9698, 8.38, -85.81, -4.12, -0.00, -0.00, -0.00, -0.13, 0.02, -0.11, 14.88, 1.69, 27.19, -9.91, 0.73, -0.10, -9.78, 0.70, 0.01, -6273825.07, 387698.57, -0.06
203952, 25.81, 52.68, 0,  , 135, 400,  , 14504, 18542, 2944.36, 5517, 9674, 8.38, -85.81, -4.12, -0.01, -0.01, 0.00, -0.09, 0.07, -0.03, 14.88, 1.69, 27.50, -9.87, 0.78, -0.01, -9.78, 0.70, 0.01, -6284497.67, 395999.49, -0.04
204435, 25.84, 52.65, 0,  , 139, 400,  , 14497, 18526, 2938.49, 5505, 9660, 8.38, -85.81, -4.12, 0.00, 0.01, -0.01, -0.13, 0.12, -0.06, 14.88, 2.38, 26.75, -9.91, 0.83, -0.04, -9.78, 0.70, 0.01, -6299661.46, 409996.83, -0.06
204922, 25.81, 52.68, 0,  , 131, 400,  , 14491, 18530, 2934.97, 5499, 9652, 8.44, -85.81, -4.12, -0.01, -0.00, 0.00, -0.12, 0.06, -0.09, 15.50, 2.38, 26.69, -9.90, 0.77, -0.07, -9.78, 0.70, 0.01, -6313891.60, 417111.90, -0.06
205407, 25.81, 52.65, 0,  , 133, 400,  , 14501, 18534, 2937.90, 5504, 9656, 8.44, -85.81, -4.12, 0.00, -0.00, -0.00, -0.11, 0.02, -0.07, 15.19, 2.06, 26.00, -9.89, 0.73, -0.05, -9.78, 0.70, 0.01, -6326828.97, 419464.15, -0.05
205892, 25.79, 52.64, 0,  , 128, 400,  , 14502, 18537, 2931.45, 5491, 9639, 8.44, -85.81, -4.12, 0.00, 0.00, 0.00, -0.11, 0.06, -0.06, 15.19, 1.38, 27.50, -9.89, 0.77, -0.04, -9.78, 0.70, 0.01, -6339766.35, 426520.90, -0.05
206379, 25.81, 52.69, 0,  , 128, 400,  , 14499, 18538, 2926.17, 5480, 9619, 8.44, -85.81, -4.12, 0.00, -0.00, 0.00, -0.11, 0.10, 0.00, 16.25, 2.06, 27.88, -9.89, 0.80, 0.02, -9.78, 0.70, 0.02, -6352810.64, 438379.35, -0.05
206865, 25.81, 52.70, 0,  , 127, 400,  , 14502, 18542, 2923.82, 5480, 9623, 8.44, -85.81, -4.12, -0.00, -0.01, 0.01, -0.13, 0.07, -0.13, 15.19, 1.00, 27.50, -9.91, 0.78, -0.12, -9.78, 0.70, 0.01, -6368163.38, 446646.21, -0.06
207348, 25.79, 52.72, 0,  , 128, 400,  , 14496, 18539, 2924.41, 5481, 9609, 8.44, -85.81, -4.12, 0.00, 0.00, 0.01, -0.10, 0.07, -0.08, 14.88, 1.38, 27.19, -9.88, 0.78, -0.07, -9.78, 0.70, 0.01, -6379827.83, 454811.32, -0.05
207834, 25.81, 52.73, 0,  , 126, 400,  , 14512, 18544, 2926.17, 5480, 9613, 8.44, -85.81, -4.12, 0.00, 0.01, 0.00, -0.12, 0.08, -0.10, 15.50, 1.38, 27.19, -9.91, 0.78, -0.04, -9.78, 0.70, 0.01, -6393999.59, 464259.16, -0.06
208319, 25.79, 52.78, 0,  , 123, 400,  , 14513, 18544, 2932.62, 5488, 9615, 8.44, -85.81, -4.12, 0.00, 0.00, 0.00, -0.13, 0.02, -0.03, 15.88, 2.38, 26.69, -9.91, 0.73, -0.01, -9.78, 0.70, 0.01, -6409289.21, 466611.41, -0.06
208806, 25.78, 52.78, 0,  , 130, 400,  , 14506, 18538, 2927.93, 5490, 9620, 8.44, -85.81, -4.12, -0.00, -0.00, 0.00, -0.11, 0.01, -0.01, 16.69, 1.69, 26.69, -9.89, 0.72, 0.00, -9.78, 0.70, 0.01, -6422333.51, 467797.26, -0.05
209293, 25.76, 52.80, 0,  , 122, 400,  , 14509, 18550, 2928.51, 5488, 9610, 8.44, -85.81, -4.12, 0.00, 0.00, -0.00, -0.11, 0.01, 0.00, 16.25, 1.69, 26.00, -9.89, 0.72, 0.01, -9.78, 0.70, 0.01, -6435377.80, 468983.10, -0.05
209774, 25.78, 52.80, 0,  , 120, 400,  , 14513, 18554, 2925.58, 5483, 9607, 8.44, -85.81, -4.12, 0.00, -0.01, 0.01, -0.10, 0.08, -0.03, 16.25, 2.06, 26.00, -9.88, 0.79, -0.01, -9.78, 0.70, 0.01, -6446945.85, 478237.54, -0.05
210261, 25.78, 52.81, 0,  , 118, 400,  , 14513, 18554, 2929.10, 5489, 9615, 8.44, -85.81, -4.12, -0.00, -0.00, 0.00, -0.12, 0.00, -0.01, 15.50, 1.38, 26.25, -9.90, 0.71, 0.00, -9.78, 0.70, 0.01, -6461175.99, 478237.54, -0.06
210748, 25.78, 52.81, 0,  , 119, 400,  , 14513, 18556, 2929.69, 5489, 9610, 8.44, -85.81, -4.12, 0.00, 0.00, 0.01, -0.14, 0.00, 0.00, 15.88, 1.69, 27.06, -9.92, 0.70, 0.01, -9.78, 0.70, 0.01, -6477777.82, 478237.54, -0.07
211228, 25.79, 52.82, 0,  , 118, 400,  , 14509, 18546, 2928.51, 5488, 9606, 8.44, -85.81, -4.12, 0.00, 0.01, -0.00, -0.14, -0.02, -0.01, 15.88, 2.06, 26.25, -9.92, 0.68, 0.00, -9.78, 0.70, 0.01, -6493905.82, 475933.54, -0.07
211715, 25.76, 52.78, 0,  , 115, 400,  , 14510, 18564, 2930.27, 5491, 9608, 8.44, -85.81, -4.12, 0.01, 0.00, 0.00, -0.12, 0.08, -0.05, 14.06, 2.06, 27.88, -9.90, 0.79, -0.03, -9.78, 0.70, 0.01, -6508135.96, 485420.30, -0.06
212199, 25.78, 52.78, 0,  , 118, 400,  , 14511, 18555, 2929.10, 5489, 9610, 8.44, -85.81, -4.12, -0.00, 0.00, 0.00, -0.11, 0.03, -0.08, 15.19, 1.69, 27.50, -9.89, 0.74, -0.06, -9.78, 0.70, 0.01, -6521020.04, 488934.14, -0.05
212684, 25.76, 52.76, 0,  , 116, 400,  , 14513, 18556, 2930.27, 5488, 9603, 8.44, -85.81, -4.12, 0.00, 0.00, 0.00, -0.10, 0.04, -0.02, 15.19, 1.25, 27.19, -9.88, 0.75, 0.00, -9.78, 0.70, 0.01, -6532781.29, 493638.64, -0.05
213171, 25.76, 52.79, 0,  , 122, 400,  , 14511, 18556, 2924.41, 5489, 9612, 8.44, -85.81, -4.12, 0.00, -0.00, 0.00, -0.12, 0.07, 0.01, 15.50, 1.69, 27.50, -9.90, 0.78, 0.03, -9.78, 0.70, 0.01, -6547011.43, 501939.55, -0.06
213653, 25.78, 52.77, 0,  , 107, 400,  , 14517, 18565, 2926.75, 5485, 9606, 8.50, -85.88, -4.06, 0.01, 0.01, 0.00, -0.09, 0.04, -0.08, 16.25, 2.06, 26.69, -9.87, 0.75, -0.06, -9.78, 0.70, 0.01, -6557466.01, 506586.03, -0.04
214137, 25.76, 52.83, 0,  , 115, 400,  , 14510, 18563, 2924.41, 5481, 9619, 8.50, -85.88, -4.06, 0.00, 0.00, -0.00, -0.13, 0.06, -0.06, 15.19, 1.69, 27.19, -9.90, 0.76, -0.02, -9.78, 0.70, 0.01, -6572692.65, 513613.71, -0.06
214626, 25.78, 52.85, 0,  , 111, 400,  , 14512, 18557, 2924.99, 5484, 9600, 8.50, -85.88, -4.06, -0.00, -0.00, 0.00, -0.11, 0.08, 0.02, 15.50, 1.69, 26.75, -9.89, 0.78, 0.04, -9.78, 0.70, 0.01, -6585844.31, 523178.55, -0.05
215111, 25.76, 52.80, 0,  , 114, 400,  , 14513, 18554, 2926.75, 5480, 9610, 8.56, -85.88, -4.06, -0.00, -0.01, 0.00, -0.11, 0.02, -0.04, 15.88, 1.69, 27.50, -9.89, 0.72, -0.02, -9.78, 0.70, 0.02, -6598781.68, 525530.80, -0.05
215597, 25.76, 52.80, 0,  , 113, 400,  , 14520, 18576, 2925.58, 5479, 9602, 8.50, -85.88, -4.06, 0.01, 0.00, -0.01, -0.12, 0.02, -0.05, 15.50, 1.69, 26.69, -9.90, 0.73, -0.01, -9.78, 0.70, 0.03, -6612953.44, 527892.76, -0.06
216080, 25.75, 52.79, 0,  , 112, 400,  , 14514, 18564, 2924.41, 5481, 9598, 8.50, -85.88, -4.06, 0.00, 0.00, -0.01, -0.12, 0.07, 0.01, 16.25, 1.69, 27.88, -9.90, 0.78, 0.04, -9.78, 0.70, 0.03, -6626950.78, 536057.88, -0.06
216565, 25.76, 52.83, 0,  , 108, 400,  , 14512, 18556, 2922.65, 5478, 9596, 8.50, -85.88, -4.06, -0.00, -0.01, -0.00, -0.13, 0.06, -0.02, 15.88, 1.38, 26.69, -9.91, 0.76, 0.01, -9.78, 0.70, 0.03, -6642240.41, 543114.63, -0.06
217051, 25.75, 52.83, 0,  , 109, 400,  , 14514, 18560, 2919.71, 5476, 9599, 8.56, -85.88, -4.06, -0.00, -0.01, 0.00, -0.11, 0.03, -0.11, 16.25, 2.75, 27.50, -9.89, 0.74, -0.08, -9.78, 0.70, 0.03, -6655231.19, 546657.57, -0.05
217533, 25.75, 52.81, 0,  , 110, 400,  , 14517, 18567, 2919.71, 5478, 9597, 8.56, -85.88, -4.06, 0.01, -0.00, -0.00, -0.14, 0.06, -0.14, 15.50, 2.38, 28.25, -9.92, 0.77, -0.10, -9.78, 0.70, 0.03, -6671493.87, 553627.29, -0.07
218018, 25.75, 52.83, 0,  , 106, 400,  , 14505, 18561, 2919.13, 5472, 9601, 8.56, -85.88, -4.06, -0.00, 0.00, -0.00, -0.12, -0.02, -0.06, 15.50, 1.69, 27.50, -9.92, 0.71, -0.06, -9.78, 0.70, 0.03, -6685607.37, 551275.04, -0.06
218505, 25.74, 52.84, 0,  , 110, 400,  , 14514, 18577, 2922.06, 5477, 9599, 8.56, -85.88, -4.06, -0.00, -0.01, 0.01, -0.10, 0.00, -0.08, 14.50, 2.06, 26.69, -9.88, 0.69, -0.04, -9.78, 0.70, 0.03, -6697465.82, 551275.04, -0.05
218989, 25.75, 52.84, 0,  , 106, 400,  , 14512, 18573, 2923.23, 5479, 9581, 8.50, -85.88, -4.06, 0.00, 0.01, -0.00, -0.11, 0.07, -0.05, 15.19, 1.25, 28.25, -9.91, 0.78, -0.04, -9.78, 0.70, 0.04, -6710349.90, 559474.00, -0.05
219478, 25.72, 52.88, 0,  , 106, 400,  , 14507, 18566, 2919.71, 5472, 9578, 8.50, -85.88, -4.06, -0.03, -0.01, 0.01, 0.15, -0.18, 0.41, 15.56, 1.75, 27.00, -9.62, 0.51, 0.46, -9.78, 0.69, 0.05, -6692415.82, 537953.11, 0.07
219958, 25.74, 52.87, 0,  , 110, 400,  , 14513, 18572, 2922.06, 5475, 9584, 8.81, -85.94, -3.94, -0.02, 0.00, -0.00, -0.14, -0.04, -0.04, 15.56, 1.75, 28.50, -9.92, 0.63, -0.01, -9.78, 0.68, 0.03, -6708543.82, 533345.11, -0.07
220445, 25.74, 52.93, 0,  , 109, 400,  , 14510, 18563, 2920.30, 5474, 9580, 8.88, -85.94, -4.00, 0.00, 0.00, -0.00, -0.13, 0.05, -0.05, 15.25, 2.19, 27.69, -9.91, 0.71, -0.01, -9.78, 0.69, 0.02, -6723959.81, 539274.33, -0.06
220931, 25.72, 52.92, 0,  , 104, 400,  , 14515, 18580, 2919.13, 5472, 9577, 8.88, -85.94, -4.00, -0.00, 0.00, -0.01, -0.12, 0.06, 0.00, 15.56, 2.19, 27.69, -9.91, 0.76, 0.00, -9.78, 0.69, 0.01, -6738131.57, 546360.21, -0.06
221416, 25.74, 52.91, 0,  , 104, 400,  , 14515, 18565, 2919.13, 5472, 9571, 8.88, -85.94, -4.00, -0.00, -0.00, 0.00, -0.11, 0.04, -0.07, 15.25, 2.19, 26.06, -9.94, 0.75, 0.00, -9.78, 0.69, 0.01, -6751068.94, 551064.71, -0.05
221903, 25.74, 53.00, 0,  , 108, 400,  , 14511, 18577, 2916.20, 5465, 9571, 8.88, -85.94, -4.00, 0.01, 0.01, -0.00, -0.13, 0.05, -0.09, 14.56, 1.75, 27.69, -9.91, 0.74, -0.07, -9.78, 0.69, 0.01, -6766484.92, 556993.94, -0.06
222392, 25.72, 52.94, 0,  , 103, 400,  , 14511, 18569, 2915.02, 5465, 9567, 8.88, -85.94, -4.00, 0.01, 0.00, 0.00, -0.13, 0.10, -0.06, 15.25, 2.19, 27.00, -9.92, 0.79, -0.04, -9.78, 0.69, 0.01, -6782027.79, 568949.99, -0.06
222875, 25.74, 52.94, 0,  , 100, 400,  , 14520, 18573, 2914.44, 5464, 9564, 8.88, -85.94, -4.00, 0.03, -0.00, 0.01, -0.06, 0.10, -0.02, 15.56, 2.19, 27.56, -9.84, 0.79, 0.00, -9.78, 0.69, 0.01, -6789026.46, 580614.44, -0.03
223366, 25.72, 52.92, 0,  , 103, 400,  , 14517, 18579, 2914.44, 5464, 9557, 8.88, -85.94, -4.00, 0.00, -0.00, 0.00, -0.10, 0.09, -0.09, 16.00, 2.19, 28.38, -9.88, 0.78, -0.08, -9.78, 0.69, 0.01, -6801080.51, 591463.08, -0.05
223855, 25.74, 52.92, 0,  , 108, 400,  , 14511, 18581, 2911.50, 5462, 9554, 8.88, -85.88, -4.06, -0.01, -0.00, 0.00, -0.12, 0.14, -0.05, 15.00, 1.75, 26.88, -9.90, 0.83, -0.03, -9.78, 0.69, 0.01, -6815427.77, 608201.55, -0.06
224337, 25.72, 52.86, 0,  , 105, 400,  , 14506, 18572, 2913.26, 5463, 9554, 8.88, -85.88, -4.06, -0.01, 0.01, -0.00, -0.15, 0.01, -0.12, 15.56, 2.19, 26.38, -9.93, 0.71, -0.11, -9.78, 0.69, 0.01, -6832852.07, 609363.17, -0.07
224823, 25.69, 52.87, 0,  , 108, 400,  , 14510, 18573, 2913.26, 5462, 9542, 8.69, -85.81, -4.12, 0.01, 0.00, -0.01, -0.14, 0.05, -0.01, 14.56, 2.19, 27.19, -9.88, 0.77, -0.01, -9.78, 0.71, 0.01, -6849385.79, 615268.07, -0.07
225307, 25.72, 52.89, 0,  , 97, 400,  , 14514, 18582, 2912.68, 5461, 9547, 8.69, -85.81, -175.81, 0.01, -0.01, 0.01, -0.11, 0.16, -0.04, 16.75, 2.19, 27.19, -9.89, 0.87, -0.04, -9.78, 0.71, 0.00, -6862269.87, 634008.55, -0.05
225793, 25.71, 52.92, 0,  , 100, 400,  , 14515, 18589, 2915.61, 5454, 9544, 8.62, -85.75, -175.75, 0.00, -0.00, 0.00, -0.11, 0.12, -0.05, 16.00, 2.50, 27.19, -9.89, 0.84, -0.05, -9.78, 0.71, 0.00, -6875260.65, 648180.31, -0.05
226280, 25.71, 52.85, 0,  , 100, 400,  , 14514, 18577, 2911.50, 5458, 9540, 8.62, -85.75, -175.75, 0.00, 0.01, 0.00, -0.12, 0.09, -0.02, 15.56, 1.75, 27.56, -9.90, 0.80, -0.02, -9.78, 0.71, 0.00, -6889490.79, 658852.92, -0.06
226763, 25.71, 52.86, 0,  , 98, 400,  , 14520, 18576, 2905.64, 5455, 9538, 8.62, -85.75, -175.75, -0.00, -0.00, 0.01, -0.11, 0.15, 0.02, 15.25, 2.19, 26.50, -9.89, 0.87, 0.01, -9.77, 0.72, 0.00, -6902321.68, 676349.59, -0.05
227248, 25.71, 52.87, 0,  , 104, 400,  , 14520, 18583, 2905.64, 5449, 9531, 8.56, -85.69, -175.69, -0.01, -0.01, 0.01, -0.11, 0.08, -0.06, 15.25, 2.19, 27.19, -9.89, 0.81, -0.06, -9.77, 0.72, 0.00, -6915259.06, 685758.59, -0.05
227735, 25.71, 52.85, 0,  , 96, 400,  , 14519, 18581, 2907.40, 5452, 9516, 8.56, -85.69, -175.69, 0.00, 0.01, 0.00, -0.14, -0.07, -0.12, 15.25, 2.19, 26.88, -9.92, 0.65, -0.13, -9.77, 0.72, 0.00, -6931860.89, 677457.68, -0.07
228216, 25.69, 52.87, 0,  , 100, 400,  , 14520, 18584, 2906.23, 5454, 9514, 8.50, -85.69, -4.25, 0.01, 0.01, -0.00, -0.13, 0.00, -0.08, 15.00, 2.50, 26.88, -9.91, 0.74, -0.08, -9.77, 0.73, 0.00, -6946899.35, 677457.68, -0.06
228701, 25.71, 52.86, 0,  , 92, 400,  , 14525, 18582, 2909.75, 5453, 9523, 8.50, -85.69, -175.69, -0.00, 0.00, -0.00, -0.12, 0.00, 0.09, 16.00, 2.19, 27.56, -9.89, 0.75, 0.07, -9.77, 0.73, 0.00, -6961012.85, 677457.68, -0.06
229186, 25.68, 52.86, 0,  , 91, 400,  , 14527, 18589, 2907.40, 5452, 9523, 8.50, -85.69, -175.69, 0.01, -0.00, 0.00, -0.14, 0.02, 0.02, 15.56, 2.19, 26.50, -9.92, 0.76, 0.01, -9.77, 0.73, 0.00, -6977478.60, 679809.93, -0.07
229672, 25.71, 52.88, 0,  , 98, 400,  , 14527, 18581, 2907.40, 5452, 9535, 8.50, -85.69, -175.69, 0.00, 0.00, 0.00, -0.12, 0.00, -0.03, 15.00, 2.50, 27.56, -9.90, 0.73, -0.03, -9.77, 0.73, 0.00, -6991650.36, 679809.93, -0.06
230159, 25.72, 52.86, 0,  , 92, 400,  , 14527, 18591, 2907.99, 5453, 9529, 8.50, -85.69, -175.69, 0.00, 0.00, -0.00, -0.12, -0.01, -0.02, 15.25, 2.19, 27.19, -9.90, 0.72, -0.02, -9.77, 0.73, 0.00, -7005880.50, 678624.08, -0.06
230642, 25.69, 52.85, 0,  , 93, 400,  , 14525, 18597, 2906.82, 5448, 9539, 8.50, -85.69, -175.69, -0.00, 0.00, 0.00, -0.11, 0.02, 0.00, 15.56, 2.19, 28.00, -9.89, 0.75, 0.00, -9.77, 0.73, 0.00, -7018711.40, 680956.97, -0.05
231125, 25.71, 52.82, 0,  , 90, 400,  , 14525, 18594, 2906.82, 5452, 9535, 8.50, -85.69, -175.69, -0.00, 0.00, -0.00, -0.12, 0.02, -0.02, 16.00, 2.50, 27.19, -9.90, 0.76, -0.03, -9.77, 0.73, 0.00, -7032708.74, 683289.86, -0.06
231614, 25.69, 52.80, 0,  , 88, 400,  , 14522, 18590, 2903.30, 5445, 9534, 8.50, -85.69, -175.69, 0.00, 0.00, 0.00, -0.13, 0.00, -0.01, 16.00, 2.50, 27.19, -9.91, 0.74, -0.01, -9.77, 0.73, 0.00, -7048251.60, 683289.86, -0.06
232096, 25.69, 52.81, 0,  , 88, 400,  , 14525, 18593, 2905.06, 5448, 9536, 8.50, -85.69, -175.69, -0.01, -0.01, 0.00, -0.11, 0.00, -0.02, 16.00, 2.88, 26.88, -9.89, 0.73, -0.02, -9.77, 0.73, 0.00, -7061029.42, 683289.86, -0.05
232579, 25.69, 52.80, 0,  , 90, 400,  , 14519, 18586, 2902.71, 5444, 9533, 8.50, -85.69, -175.69, -0.00, 0.00, 0.00, -0.12, -0.01, 0.00, 15.25, 1.38, 27.56, -9.91, 0.72, 0.00, -9.77, 0.73, 0.00, -7075026.76, 682123.42, -0.06
233065, 25.69, 52.81, 0,  , 95, 400,  , 14524, 18595, 2904.47, 5441, 9523, 8.50, -85.69, -175.69, 0.00, -0.00, 0.00, -0.13, -0.03, -0.04, 16.00, 1.06, 26.88, -9.91, 0.70, -0.05, -9.77, 0.73, 0.00, -7090379.50, 678580.48, -0.06
233550, 25.69, 52.81, 0,  , 91, 400,  , 14522, 18592, 2900.95, 5440, 9520, 8.50, -85.69, -175.69, 0.00, 0.00, -0.00, -0.12, 0.03, -0.02, 15.56, 1.38, 26.50, -9.90, 0.76, -0.02, -9.77, 0.73, 0.00, -7104493.00, 682108.85, -0.06
234033, 25.69, 52.85, 0,  , 91, 400,  , 14521, 18600, 2903.30, 5445, 9523, 8.50, -85.69, -175.69, -0.00, 0.00, 0.00, -0.12, 0.02, -0.07, 16.00, 2.19, 26.88, -9.89, 0.77, -0.06, -9.77, 0.73, 0.00, -7118490.34, 684441.74, -0.06
234518, 25.71, 52.85, 0,  , 87, 400,  , 14522, 18595, 2903.89, 5446, 9525, 8.50, -85.69, -175.69, -0.00, -0.00, 0.00, -0.14, -0.03, -0.02, 16.00, 2.50, 28.38, -9.92, 0.70, -0.02, -9.77, 0.73, 0.00, -7134956.09, 680913.37, -0.07
235004, 25.68, 52.83, 0,  , 87, 400,  , 14523, 18600, 2903.89, 5444, 9519, 8.50, -85.69, -175.69, -0.00, -0.00, -0.00, -0.11, -0.05, -0.02, 16.38, 1.75, 27.19, -9.89, 0.68, -0.02, -9.77, 0.73, 0.00, -7147946.87, 675008.47, -0.05
235492, 25.67, 52.88, 0,  , 88, 400,  , 14529, 18604, 2900.95, 5445, 9522, 8.50, -85.69, -175.69, 0.00, 0.00, -0.00, -0.13, 0.00, -0.03, 16.00, 1.75, 26.50, -9.91, 0.73, -0.03, -9.77, 0.73, 0.00, -7163426.23, 675008.47, -0.06
235973, 25.69, 52.86, 0,  , 82, 400,  , 14525, 18604, 2903.30, 5442, 9517, 8.50, -85.69, -175.69, 0.00, 0.00, -0.00, -0.11, -0.03, -0.03, 16.00, 2.19, 26.50, -9.89, 0.69, -0.03, -9.77, 0.73, 0.00, -7176151.08, 671538.05, -0.05
236460, 25.67, 52.87, 0,  , 82, 400,  , 14527, 18600, 2901.54, 5442, 9522, 8.50, -85.69, -175.69, -0.00, -0.00, 0.00, -0.12, 0.00, -0.01, 15.25, 2.19, 26.50, -9.90, 0.73, -0.01, -9.77, 0.73, 0.00, -7190381.22, 671538.05, -0.06
236947, 25.68, 52.95, 0,  , 88, 400,  , 14532, 18606, 2901.54, 5442, 9523, 8.50, -85.69, -175.69, -0.00, -0.00, 0.00, -0.12, 0.04, -0.02, 15.56, 1.75, 26.88, -9.90, 0.78, -0.02, -9.77, 0.73, 0.00, -7204611.36, 676281.43, -0.06
237429, 25.69, 52.90, 0,  , 91, 400,  , 14524, 18602, 2901.54, 5442, 9530, 8.50, -85.69, -175.69, 0.00, -0.00, 0.00, -0.14, -0.02, -0.05, 16.00, 1.38, 26.50, -9.89, 0.71, -0.06, -9.77, 0.73, 0.00, -7220874.04, 673958.19, -0.07
237917, 25.67, 52.94, 0,  , 77, 400,  , 14531, 18601, 2900.95, 5438, 9524, 8.50, -85.69, -175.69, -0.00, -0.00, 0.00, -0.13, 0.00, -0.06, 15.25, 2.19, 26.88, -9.91, 0.72, -0.07, -9.77, 0.73, 0.00, -7236353.40, 673958.19, -0.06
238400, 25.65, 52.95, 0,  , 82, 400,  , 14524, 18605, 2899.78, 5439, 9527, 8.50, -85.69, -175.69, -0.00, 0.00, 0.00, -0.12, 0.00, -0.07, 16.38, 2.50, 26.88, -9.90, 0.74, -0.08, -9.77, 0.73, 0.00, -7250350.74, 673958.19, -0.06
238889, 25.67, 52.93, 0,  , 86, 400,  , 14525, 18612, 2896.85, 5434, 9523, 8.50, -85.69, -175.69, -0.00, 0.00, 0.00, -0.11, -0.02, -0.06, 15.25, 2.50, 26.88, -9.89, 0.71, -0.07, -9.77, 0.73, 0.00, -7263502.40, 671566.98, -0.05
239374, 25.67, 52.96, 0,  , 87, 400,  , 14520, 18603, 2900.95, 5435, 9518, 8.50, -85.69, -175.69, 0.00, 0.00, 0.00, -0.12, 0.02, -0.06, 15.56, 2.88, 27.56, -9.91, 0.71, -0.04, -9.77, 0.73, 0.00, -7277615.90, 673919.23, -0.06
239859, 25.68, 53.01, 0,  , 85, 400,  , 14519, 18603, 2898.61, 5438, 9526, 8.50, -85.69, -175.69, -0.00, 0.00, 0.00, -0.12, 0.00, -0.07, 16.00, 1.75, 26.50, -9.90, 0.74, -0.08, -9.77, 0.73, 0.00, -7291729.40, 673919.23, -0.06
240345, 25.69, 53.04, 0,  , 81, 400,  , 14521, 18602, 2902.71, 5436, 9522, 8.50, -85.69, -175.69, 0.00, 0.00, 0.00, -0.12, -0.01, -0.02, 16.00, 1.75, 26.88, -9.90, 0.72, -0.02, -9.77, 0.73, 0.00, -7305901.16, 672738.25, -0.06
240832, 25.65, 53.01, 0,  , 77, 400,  , 14524, 18606, 2899.78, 5439, 9520, 8.50, -85.69, -175.69, -0.00, 0.00, 0.00, -0.11, 0.04, 0.01, 15.25, 2.19, 27.19, -9.89, 0.78, 0.00, -9.77, 0.73, 0.00, -7318945.45, 677481.63, -0.05
241315, 25.65, 53.01, 0,  , 82, 400,  , 14520, 18603, 2902.13, 5443, 9519, 8.50, -85.69, -175.69, 0.00, -0.00, 0.00, -0.12, 0.04, -0.04, 15.25, 2.50, 26.88, -9.90, 0.78, -0.04, -9.77, 0.73, 0.00, -7332942.79, 682147.41, -0.06
241800, 25.67, 53.05, 0,  , 85, 400,  , 14522, 18609, 2903.89, 5441, 9523, 8.50, -85.69, -175.69, 0.01, 0.01, -0.00, -0.15, 0.00, -0.16, 15.56, 2.19, 26.50, -9.93, 0.73, -0.16, -9.77, 0.73, 0.00, -7350584.67, 682147.41, -0.07
242284, 25.67, 53.04, 0,  , 76, 400,  , 14530, 18606, 2902.13, 5444, 9522, 8.50, -85.69, -175.69, -0.00, 0.01, 0.00, -0.10, -0.04, -0.02, 16.00, 2.50, 27.56, -9.88, 0.68, -0.02, -9.77, 0.73, 0.00, -7362297.47, 677462.29, -0.05
242770, 25.67, 53.07, 0,  , 84, 400,  , 14523, 18619, 2902.71, 5444, 9523, 8.50, -85.69, -175.69, 0.00, -0.00, 0.00, -0.12, 0.00, 0.00, 14.56, 2.50, 26.00, -9.90, 0.74, 0.00, -9.77, 0.73, 0.00, -7376469.23, 677462.29, -0.06
243255, 25.67, 53.07, 0,  , 80, 400,  , 14525, 18612, 2899.78, 5439, 9526, 8.50, -85.69, -175.69, -0.00, -0.00, 0.00, -0.12, 0.03, -0.01, 16.00, 2.50, 27.19, -9.90, 0.76, -0.01, -9.77, 0.73, 0.00, -7390582.73, 680990.67, -0.06
243739, 25.67, 53.08, 0,  , 77, 400,  , 14522, 18606, 2903.30, 5445, 9527, 8.50, -85.69, -175.69, 0.00, -0.00, 0.00, -0.10, -0.02, -0.01, 25.75, -5.50, 53.06, -9.88, 0.70, -0.01, -9.77, 0.73, 0.00, -7402295.53, 678648.11, -0.05
244225, 25.67, 53.08, 0,  , 83, 400,  , 14528, 18613, 2905.06, 5453, 9534, 8.50, -85.69, -175.69, 0.00, 0.01, -0.00, -0.12, -0.01, -0.06, 26.56, -4.38, 53.06, -9.90, 0.72, -0.06, -9.77, 0.73, 0.00, -7416467.29, 677467.13, -0.06
244712, 25.65, 53.09, 0,  , 80, 400,  , 14524, 18616, 2905.64, 5447, 9531, 8.50, -85.69, -175.69, 0.00, 0.01, -0.00, -0.12, -0.01, -0.07, 25.38, -4.75, 53.88, -9.90, 0.72, -0.07, -9.77, 0.73, 0.00, -7430697.43, 676281.28, -0.06
245195, 25.67, 53.10, 0,  , 79, 400,  , 14517, 18613, 2902.71, 5444, 9527, 8.50, -85.69, -175.69, 0.00, -0.00, 0.00, -0.10, -0.02, -0.02, 25.75, -5.50, 52.75, -9.88, 0.71, -0.02, -9.77, 0.73, 0.00, -7442361.88, 673948.39, -0.05
245684, 25.65, 53.10, 0,  , 79, 400,  , 14525, 18613, 2904.47, 5447, 9535, 8.50, -85.69, -175.69, -0.00, -0.01, -0.00, -0.12, -0.03, -0.02, 24.75, -5.50, 52.38, -9.90, 0.69, -0.02, -9.77, 0.73, 0.00, -7456709.14, 670361.58, -0.06
246168, 25.67, 53.09, 0,  , 80, 400,  , 14525, 18610, 2903.30, 5443, 9539, 8.50, -85.69, -175.69, 0.00, 0.00, -0.00, -0.12, 0.01, -0.04, 26.56, -4.75, 53.06, -9.90, 0.75, -0.04, -9.77, 0.73, 0.00, -7470764.50, 671532.86, -0.06
246654, 25.64, 53.13, 0,  , 77, 400,  , 14526, 18616, 2905.64, 5444, 9535, 8.50, -85.69, -175.69, 0.00, 0.00, 0.00, -0.13, -0.01, -0.04, 25.06, -5.50, 52.38, -9.91, 0.71, -0.04, -9.77, 0.73, 0.00, -7486117.24, 670351.88, -0.06
247140, 25.67, 53.10, 0,  , 77, 400,  , 14526, 18616, 2906.82, 5444, 9533, 8.50, -85.69, -175.69, 0.00, -0.00, 0.00, -0.11, 0.00, -0.04, 25.06, -5.50, 53.06, -9.89, 0.73, -0.04, -9.77, 0.73, 0.00, -7499108.02, 670351.88, -0.05
247623, 25.64, 53.09, 0,  , 75, 400,  , 14529, 18621, 2906.82, 5451, 9542, 8.50, -85.69, -175.69, -0.00, -0.00, 0.00, -0.12, -0.01, -0.01, 26.19, -5.88, 52.75, -9.91, 0.70, -0.01, -9.77, 0.73, 0.00, -7513047.46, 669190.26, -0.06
248119, 25.64, 53.14, 0,  , 82, 400,  , 14520, 18611, 2907.40, 5452, 9549, 8.50, -85.69, -175.69, -0.00, -0.00, -0.00, -0.13, -0.01, 0.00, 25.38, -4.75, 52.75, -9.91, 0.72, 0.00, -9.77, 0.73, 0.00, -7529038.49, 667960.18, -0.07
248604, 25.62, 53.10, 0,  , 81, 400,  , 14514, 18607, 2907.99, 5452, 9553, 8.50, -85.69, -175.69, 0.00, 0.00, 0.00, -0.15, 0.01, -0.03, 25.06, -5.06, 53.56, -9.93, 0.74, -0.03, -9.77, 0.73, 0.00, -7546680.37, 669136.30, -0.07
249087, 25.64, 53.13, 0,  , 85, 400,  , 14518, 18611, 2906.82, 5452, 9548, 8.50, -85.69, -175.69, 0.00, 0.01, -0.01, -0.10, 0.03, -0.04, 25.38, -5.50, 52.75, -9.91, 0.78, -0.05, -9.77, 0.73, 0.00, -7558344.82, 672635.64, -0.05
249575, 25.61, 53.13, 0,  , 80, 400,  , 14524, 18622, 2907.99, 5453, 9547, 8.50, -85.69, -175.69, -0.01, -0.01, 0.00, -0.14, 0.00, 0.01, 25.38, -5.50, 52.75, -9.92, 0.73, 0.01, -9.77, 0.73, 0.00, -7575014.90, 672635.64, -0.07
250060, 25.62, 53.13, 0,  , 75, 400,  , 14532, 18624, 2909.75, 5456, 9546, 8.50, -85.69, -175.69, -0.01, -0.00, 0.00, -0.13, -0.01, -0.01, 25.38, -5.50, 53.06, -9.90, 0.72, -0.03, -9.77, 0.73, 0.00, -7590304.52, 671459.51, -0.06
250544, 25.65, 53.11, 0,  , 74, 400,  , 14529, 18621, 2909.75, 5456, 9549, 8.50, -85.69, -175.69, 0.01, 0.01, -0.01, -0.11, 0.02, -0.06, 24.75, -5.88, 53.50, -9.89, 0.75, -0.06, -9.77, 0.73, 0.00, -7603188.60, 673802.07, -0.05
251029, 25.64, 53.13, 0,  , 71, 400,  , 14530, 18618, 2910.33, 5458, 9557, 8.50, -85.69, -175.69, 0.00, 0.01, -0.01, -0.12, 0.06, 0.02, 25.75, -5.06, 51.56, -9.90, 0.79, 0.02, -9.77, 0.73, 0.00, -7617302.10, 680858.82, -0.06
251515, 25.65, 53.11, 0,  , 75, 400,  , 14529, 18624, 2910.92, 5465, 9555, 8.50, -85.69, -175.69, -0.00, -0.01, 0.01, -0.13, 0.06, -0.07, 25.06, -5.50, 52.75, -9.91, 0.79, -0.08, -9.77, 0.73, 0.00, -7632654.84, 687944.70, -0.06
252001, 25.65, 53.12, 0,  , 69, 400,  , 14526, 18627, 2912.09, 5460, 9557, 8.50, -85.69, -175.69, 0.00, 0.00, -0.00, -0.12, 0.03, -0.06, 25.75, -5.50, 52.75, -9.90, 0.76, -0.07, -9.77, 0.73, 0.00, -7646826.60, 691487.64, -0.06
252487, 25.64, 53.12, 0,  , 75, 400,  , 14527, 18625, 2915.02, 5465, 9566, 8.50, -85.69, -175.69, 0.00, 0.01, 0.00, -0.13, -0.01, 0.01, 25.38, -5.88, 53.06, -9.91, 0.72, 0.00, -9.77, 0.73, 0.00, -7662179.34, 690306.66, -0.06
252970, 25.64, 53.14, 0,  , 71, 400,  , 14521, 18626, 2914.44, 5467, 9565, 8.50, -85.69, -175.69, -0.00, -0.01, 0.00, -0.11, 0.00, 0.00, 24.75, -5.50, 51.88, -9.89, 0.73, 0.00, -9.77, 0.73, 0.00, -7675010.24, 690306.66, -0.05
253454, 25.67, 53.12, 0,  , 75, 400,  , 14532, 18631, 2917.95, 5469, 9562, 8.50, -85.69, -175.69, 0.00, -0.00, 0.00, -0.13, -0.05, -0.07, 25.75, -5.88, 53.50, -9.91, 0.67, -0.07, -9.77, 0.73, 0.00, -7690236.88, 684450.26, -0.06
253942, 25.64, 53.14, 0,  , 67, 400,  , 14523, 18619, 2919.71, 5473, 9567, 8.50, -85.69, -175.69, 0.00, 0.01, 0.00, -0.13, -0.04, -0.08, 25.75, -5.88, 53.06, -9.91, 0.69, -0.08, -9.77, 0.73, 0.00, -7705716.24, 679687.38, -0.06
254424, 25.62, 53.10, 0,  , 68, 400,  , 14532, 18636, 2916.78, 5468, 9565, 8.50, -85.69, -4.25, -0.00, -0.00, 0.00, -0.12, 0.02, -0.01, 25.06, -5.06, 52.00, -9.90, 0.75, 0.00, -9.77, 0.73, 0.00, -7719655.68, 682010.62, -0.06
254910, 25.65, 53.09, 0,  , 73, 400,  , 14529, 18635, 2918.54, 5471, 9570, 8.56, -85.69, -4.25, 0.01, -0.00, -0.00, -0.11, 0.00, -0.01, 25.38, -5.06, 52.38, -9.88, 0.73, -0.04, -9.77, 0.73, 0.00, -7732646.46, 682010.62, -0.05
255398, 25.67, 53.14, 0,  , 64, 400,  , 14532, 18635, 2919.71, 5471, 9576, 8.56, -85.69, -4.25, 0.00, -0.00, -0.00, -0.12, 0.03, -0.03, 25.75, -6.19, 52.38, -9.90, 0.76, -0.03, -9.77, 0.73, 0.00, -7746935.10, 685582.78, -0.06
255878, 25.64, 53.10, 0,  , 70, 400,  , 14535, 18630, 2921.47, 5473, 9575, 8.56, -85.69, -4.25, -0.00, 0.00, -0.00, -0.12, -0.08, 0.01, 25.38, -5.06, 53.06, -9.90, 0.64, 0.01, -9.77, 0.73, 0.00, -7760759.10, 676366.78, -0.06
256366, 25.68, 53.11, 0,  , 68, 400,  , 14534, 18632, 2920.30, 5474, 9578, 8.56, -85.69, -4.25, 0.00, -0.00, -0.00, -0.10, -0.01, 0.01, 25.38, -5.06, 51.88, -9.88, 0.72, 0.01, -9.77, 0.73, 0.00, -7772666.30, 675176.06, -0.05
256848, 25.68, 53.14, 0,  , 65, 400,  , 14534, 18640, 2920.89, 5475, 9590, 8.56, -85.69, -4.25, -0.01, -0.01, 0.01, -0.12, 0.03, 0.01, 26.88, -5.06, 52.38, -9.90, 0.77, 0.01, -9.77, 0.73, 0.00, -7786605.74, 678660.92, -0.06
